subjectid,condition,counterbalance,responsenumber,phase,trialnumber,F1,F2,response,correctresponse,accuracy,rt
1,full,2,1,training,1,6,0,1,0,0,4.078987
1,full,2,2,training,2,5,5,0,1,0,2.625803
1,full,2,3,training,3,0,0,0,1,0,2.409280
1,full,2,4,training,4,5,1,1,1,1,1.915214
1,full,2,5,training,5,1,5,1,0,0,1.004401
1,full,2,6,training,6,6,6,0,0,1,0.885060
1,full,2,7,training,7,1,1,0,0,1,4.716222
1,full,2,8,training,8,0,6,1,0,0,0.917832
1,full,2,9,training,9,0,0,0,0,1,1.756159
1,full,2,10,training,10,1,5,1,1,1,4.839143
1,full,2,11,training,11,1,1,0,0,1,1.217610
1,full,2,12,training,12,5,1,1,1,1,6.052691
1,full,2,13,training,13,6,0,1,0,0,2.265052
1,full,2,14,training,14,5,5,0,0,1,0.362633
1,full,2,15,training,15,6,6,0,0,1,0.235861
1,full,2,16,training,16,0,6,1,0,0,5.167797
1,full,2,17,training,17,6,6,0,0,1,1.194571
1,full,2,18,training,18,0,0,0,0,1,4.570825
1,full,2,19,training,19,5,1,1,1,1,1.786829
1,full,2,20,training,20,0,6,1,1,1,2.324428
1,full,2,21,training,21,1,5,1,1,1,0.000142
1,full,2,22,training,22,1,1,0,0,1,1.470753
1,full,2,23,training,23,5,5,0,0,1,5.777793
1,full,2,24,training,24,6,0,1,1,1,0.773821
1,full,2,25,training,25,5,5,0,0,1,4.548064
1,full,2,26,training,26,0,6,1,1,1,1.408468
1,full,2,27,training,27,6,6,0,0,1,1.147279
1,full,2,28,training,28,1,1,0,0,1,9.792291
1,full,2,29,training,29,0,0,0,0,1,1.395505
1,full,2,30,training,30,1,5,1,1,1,0.839038
1,full,2,31,training,31,5,1,1,1,1,1.591455
1,full,2,32,training,32,6,0,1,1,1,0.710187
1,full,2,33,training,33,1,1,0,0,1,0.055742
1,full,2,34,training,34,0,0,0,0,1,0.103321
1,full,2,35,training,35,0,6,1,1,1,0.577675
1,full,2,36,training,36,5,5,0,0,1,1.055612
1,full,2,37,training,37,6,0,1,1,1,0.950799
1,full,2,38,training,38,6,6,0,0,1,0.454325
1,full,2,39,training,39,5,1,1,1,1,0.177532
1,full,2,40,training,40,1,5,1,1,1,0.764385
1,full,2,41,training,41,5,5,0,0,1,0.169049
1,full,2,42,training,42,1,5,1,1,1,0.675912
1,full,2,43,training,43,0,6,1,1,1,0.659839
1,full,2,44,training,44,6,6,0,0,1,0.668194
1,full,2,45,training,45,6,0,1,1,1,0.363342
1,full,2,46,training,46,5,1,1,1,1,0.050627
1,full,2,47,training,47,0,0,0,0,1,0.690489
1,full,2,48,training,48,1,1,0,0,1,0.344497
1,full,2,49,training,49,0,0,0,0,1,0.288447
1,full,2,50,training,50,1,1,0,0,1,1.014332
1,full,2,51,training,51,5,1,1,1,1,0.009127
1,full,2,52,training,52,6,6,0,0,1,1.616781
1,full,2,53,training,53,6,0,1,1,1,2.321012
1,full,2,54,training,54,0,6,1,1,1,0.947066
1,full,2,55,training,55,5,5,0,0,1,0.193387
1,full,2,56,training,56,1,5,1,1,1,0.646190
1,full,2,57,training,57,1,5,1,1,1,0.035767
1,full,2,58,training,58,5,1,1,1,1,1.154940
1,full,2,59,training,59,1,1,0,0,1,1.978105
1,full,2,60,training,60,0,6,1,1,1,0.555664
1,full,2,61,training,61,6,6,0,0,1,0.448368
1,full,2,62,training,62,6,0,1,1,1,0.561133
1,full,2,63,training,63,5,5,0,0,1,13.022507
1,full,2,64,training,64,0,0,0,0,1,5.115290
1,full,2,65,training,65,1,5,1,1,1,2.866109
1,full,2,66,training,66,0,6,1,1,1,0.115699
1,full,2,67,training,67,5,5,0,0,1,2.060439
1,full,2,68,training,68,5,1,1,1,1,0.255609
1,full,2,69,training,69,6,0,1,1,1,0.021598
1,full,2,70,training,70,0,0,0,0,1,2.837062
1,full,2,71,training,71,1,1,0,0,1,0.468270
1,full,2,72,training,72,6,6,0,0,1,1.198268
1,full,2,73,training,73,5,5,0,0,1,0.644256
1,full,2,74,training,74,0,6,1,1,1,1.027829
1,full,2,75,training,75,0,0,0,0,1,0.793434
1,full,2,76,training,76,5,1,1,1,1,0.612911
1,full,2,77,training,77,6,0,1,1,1,0.218109
1,full,2,78,training,78,6,6,0,0,1,1.590068
1,full,2,79,training,79,1,1,0,0,1,3.996379
1,full,2,80,training,80,1,5,1,1,1,2.330750
1,full,2,81,training,81,5,1,1,1,1,2.929110
1,full,2,82,training,82,0,0,0,0,1,0.314680
1,full,2,83,training,83,6,6,0,0,1,0.447010
1,full,2,84,training,84,0,6,1,1,1,1.001429
1,full,2,85,training,85,6,0,1,1,1,1.097702
1,full,2,86,training,86,1,5,1,1,1,1.604531
1,full,2,87,training,87,1,1,0,0,1,1.260181
1,full,2,88,training,88,5,5,0,0,1,0.770480
1,full,2,89,training,89,0,6,1,1,1,0.260806
1,full,2,90,training,90,6,0,1,1,1,0.416759
1,full,2,91,training,91,1,5,1,1,1,0.424015
1,full,2,92,training,92,6,6,0,0,1,0.032346
1,full,2,93,training,93,5,1,1,1,1,0.383514
1,full,2,94,training,94,5,5,0,0,1,0.465026
1,full,2,95,training,95,0,0,0,0,1,2.883044
1,full,2,96,training,96,1,1,0,0,1,0.000107
1,full,2,97,generalization,1,1,6,1,NaN,NaN,4.844821
1,full,2,98,generalization,2,1,3,0,NaN,NaN,10.490946
1,full,2,99,generalization,3,1,5,1,NaN,NaN,2.377819
1,full,2,100,generalization,4,5,2,1,NaN,NaN,1.509383
1,full,2,101,generalization,5,2,3,1,NaN,NaN,1.560192
1,full,2,102,generalization,6,6,2,1,NaN,NaN,0.366997
1,full,2,103,generalization,7,0,5,1,NaN,NaN,0.590554
1,full,2,104,generalization,8,6,5,0,NaN,NaN,0.496117
1,full,2,105,generalization,9,3,1,1,NaN,NaN,2.464053
1,full,2,106,generalization,10,2,2,0,NaN,NaN,4.212744
1,full,2,107,generalization,11,4,0,1,NaN,NaN,4.775885
1,full,2,108,generalization,12,3,6,0,NaN,NaN,7.965738
1,full,2,109,generalization,13,0,0,0,NaN,NaN,12.912343
1,full,2,110,generalization,14,5,0,1,NaN,NaN,8.020304
1,full,2,111,generalization,15,0,4,1,NaN,NaN,17.579650
1,full,2,112,generalization,16,3,0,1,NaN,NaN,2.023874
1,full,2,113,generalization,17,6,3,1,NaN,NaN,1.933313
1,full,2,114,generalization,18,2,5,1,NaN,NaN,1.120926
1,full,2,115,generalization,19,5,1,1,NaN,NaN,0.694087
1,full,2,116,generalization,20,6,6,0,NaN,NaN,0.002080
1,full,2,117,generalization,21,4,1,1,NaN,NaN,1.186868
1,full,2,118,generalization,22,6,1,1,NaN,NaN,0.308021
1,full,2,119,generalization,23,1,2,0,NaN,NaN,0.780386
1,full,2,120,generalization,24,4,2,1,NaN,NaN,0.139928
1,full,2,121,generalization,25,3,2,0,NaN,NaN,0.023106
1,full,2,122,generalization,26,2,4,1,NaN,NaN,3.120676
1,full,2,123,generalization,27,1,1,0,NaN,NaN,1.363449
1,full,2,124,generalization,28,3,4,0,NaN,NaN,3.112607
1,full,2,125,generalization,29,1,4,1,NaN,NaN,0.770927
1,full,2,126,generalization,30,5,6,0,NaN,NaN,4.362846
1,full,2,127,generalization,31,4,4,0,NaN,NaN,1.292089
1,full,2,128,generalization,32,2,6,1,NaN,NaN,1.479679
1,full,2,129,generalization,33,6,4,0,NaN,NaN,1.137976
1,full,2,130,generalization,34,5,3,1,NaN,NaN,1.961942
1,full,2,131,generalization,35,5,5,0,NaN,NaN,0.246365
1,full,2,132,generalization,36,2,0,1,NaN,NaN,1.039860
1,full,2,133,generalization,37,4,3,0,NaN,NaN,4.419836
1,full,2,134,generalization,38,3,5,0,NaN,NaN,3.671357
1,full,2,135,generalization,39,2,1,0,NaN,NaN,1.718486
1,full,2,136,generalization,40,6,0,1,NaN,NaN,1.298560
1,full,2,137,generalization,41,0,2,0,NaN,NaN,6.932361
1,full,2,138,generalization,42,0,3,0,NaN,NaN,1.830801
1,full,2,139,generalization,43,4,6,1,NaN,NaN,0.383189
1,full,2,140,generalization,44,5,4,0,NaN,NaN,1.370320
1,full,2,141,generalization,45,4,5,0,NaN,NaN,0.591483
1,full,2,142,generalization,46,0,6,1,NaN,NaN,0.013464
1,full,2,143,generalization,47,0,1,0,NaN,NaN,3.512995
1,full,2,144,generalization,48,3,3,0,NaN,NaN,6.154975
1,full,2,145,generalization,49,1,0,0,NaN,NaN,1.512894
2,full,5,1,training,1,0,0,0,0,1,2.860523
2,full,5,2,training,2,6,6,0,1,0,0.336021
2,full,5,3,training,3,5,1,1,0,0,0.000103
2,full,5,4,training,4,1,5,1,0,0,0.000105
2,full,5,5,training,5,5,5,0,1,0,0.455045
2,full,5,6,training,6,0,6,1,1,1,0.000154
2,full,5,7,training,7,6,0,1,1,1,0.891377
2,full,5,8,training,8,1,1,0,0,1,0.106262
2,full,5,9,training,9,0,6,1,0,0,0.266152
2,full,5,10,training,10,6,0,1,1,1,0.154108
2,full,5,11,training,11,1,5,1,1,1,0.119639
2,full,5,12,training,12,0,0,0,0,1,0.290450
2,full,5,13,training,13,6,6,0,0,1,0.000108
2,full,5,14,training,14,5,1,1,1,1,0.000159
2,full,5,15,training,15,1,1,0,1,0,0.833568
2,full,5,16,training,16,5,5,0,0,1,0.020770
2,full,5,17,training,17,1,1,0,0,1,0.384718
2,full,5,18,training,18,1,5,1,1,1,0.854288
2,full,5,19,training,19,5,5,0,1,0,0.016271
2,full,5,20,training,20,6,0,1,0,0,0.288178
2,full,5,21,training,21,0,0,0,0,1,0.000101
2,full,5,22,training,22,6,6,0,1,0,0.012562
2,full,5,23,training,23,0,6,1,1,1,0.537348
2,full,5,24,training,24,5,1,1,0,0,0.097257
2,full,5,25,training,25,6,6,0,0,1,0.767727
2,full,5,26,training,26,0,0,0,1,0,0.000154
2,full,5,27,training,27,1,5,1,1,1,0.000145
2,full,5,28,training,28,5,1,1,0,0,0.000094
2,full,5,29,training,29,6,0,1,0,0,0.002418
2,full,5,30,training,30,0,6,1,1,1,0.069948
2,full,5,31,training,31,1,1,0,1,0,0.107562
2,full,5,32,training,32,5,5,0,0,1,0.000098
2,full,5,33,training,33,6,6,0,0,1,0.377424
2,full,5,34,training,34,0,6,1,1,1,0.029828
2,full,5,35,training,35,1,5,1,1,1,0.000139
2,full,5,36,training,36,6,0,1,0,0,0.001740
2,full,5,37,training,37,5,1,1,0,0,0.429748
2,full,5,38,training,38,5,5,0,1,0,0.286467
2,full,5,39,training,39,1,1,0,1,0,0.000142
2,full,5,40,training,40,0,0,0,0,1,0.371569
2,full,5,41,training,41,6,6,0,0,1,0.000094
2,full,5,42,training,42,5,1,1,1,1,0.087543
2,full,5,43,training,43,0,0,0,1,0,0.000147
2,full,5,44,training,44,5,5,0,0,1,0.121155
2,full,5,45,training,45,0,6,1,0,0,0.000093
2,full,5,46,training,46,1,1,0,1,0,0.088682
2,full,5,47,training,47,1,5,1,0,0,0.034603
2,full,5,48,training,48,6,0,1,1,1,0.000143
2,full,5,49,training,49,6,0,1,1,1,0.460551
2,full,5,50,training,50,1,1,0,0,1,0.000103
2,full,5,51,training,51,1,5,1,0,0,0.485249
2,full,5,52,training,52,0,6,1,1,1,0.000140
2,full,5,53,training,53,0,0,0,0,1,0.000103
2,full,5,54,training,54,5,5,0,0,1,0.000095
2,full,5,55,training,55,5,1,1,1,1,0.000141
2,full,5,56,training,56,6,6,0,1,0,0.429580
2,full,5,57,training,57,0,6,1,0,0,0.242729
2,full,5,58,training,58,1,5,1,0,0,0.241900
2,full,5,59,training,59,0,0,0,1,0,0.033414
2,full,5,60,training,60,1,1,0,1,0,0.000143
2,full,5,61,training,61,5,1,1,0,0,0.624954
2,full,5,62,training,62,6,0,1,0,0,0.000106
2,full,5,63,training,63,6,6,0,1,0,1.175691
2,full,5,64,training,64,5,5,0,1,0,0.000143
2,full,5,65,training,65,0,0,0,1,0,0.003276
2,full,5,66,training,66,1,5,1,0,0,0.177205
2,full,5,67,training,67,5,1,1,0,0,0.000104
2,full,5,68,training,68,5,5,0,1,0,0.000139
2,full,5,69,training,69,1,1,0,0,1,0.334337
2,full,5,70,training,70,0,6,1,0,0,0.080361
2,full,5,71,training,71,6,6,0,1,0,0.451883
2,full,5,72,training,72,6,0,1,0,0,0.349383
2,full,5,73,training,73,1,1,0,0,1,0.000102
2,full,5,74,training,74,6,0,1,1,1,0.520204
2,full,5,75,training,75,5,1,1,1,1,0.000143
2,full,5,76,training,76,0,6,1,0,0,0.042484
2,full,5,77,training,77,0,0,0,0,1,0.000097
2,full,5,78,training,78,1,5,1,1,1,0.070452
2,full,5,79,training,79,6,6,0,1,0,0.350455
2,full,5,80,training,80,5,5,0,0,1,0.084748
2,full,5,81,training,81,0,0,0,0,1,0.692772
2,full,5,82,training,82,1,5,1,1,1,0.169158
2,full,5,83,training,83,5,5,0,0,1,0.005914
2,full,5,84,training,84,5,1,1,0,0,0.000091
2,full,5,85,training,85,6,6,0,0,1,0.517809
2,full,5,86,training,86,1,1,0,1,0,0.000144
2,full,5,87,training,87,0,6,1,0,0,0.010565
2,full,5,88,training,88,6,0,1,1,1,0.548914
2,full,5,89,training,89,1,1,0,0,1,0.525285
2,full,5,90,training,90,5,5,0,0,1,0.060562
2,full,5,91,training,91,0,6,1,1,1,0.000150
2,full,5,92,training,92,1,5,1,1,1,0.327195
2,full,5,93,training,93,6,6,0,0,1,0.000095
2,full,5,94,training,94,5,1,1,0,0,0.000099
2,full,5,95,training,95,0,0,0,0,1,0.293104
2,full,5,96,training,96,6,0,1,1,1,0.387498
2,full,5,97,generalization,1,6,3,0,NaN,NaN,1.676266
2,full,5,98,generalization,2,3,5,0,NaN,NaN,0.358167
2,full,5,99,generalization,3,6,2,1,NaN,NaN,0.000143
2,full,5,100,generalization,4,1,5,1,NaN,NaN,1.874879
2,full,5,101,generalization,5,0,3,0,NaN,NaN,0.469664
2,full,5,102,generalization,6,3,1,1,NaN,NaN,0.027661
2,full,5,103,generalization,7,4,4,0,NaN,NaN,0.182082
2,full,5,104,generalization,8,0,6,1,NaN,NaN,0.788815
2,full,5,105,generalization,9,2,1,0,NaN,NaN,0.097574
2,full,5,106,generalization,10,0,2,0,NaN,NaN,0.292381
2,full,5,107,generalization,11,2,6,0,NaN,NaN,0.219923
2,full,5,108,generalization,12,4,1,1,NaN,NaN,0.210388
2,full,5,109,generalization,13,5,1,1,NaN,NaN,0.191864
2,full,5,110,generalization,14,1,4,0,NaN,NaN,0.048716
2,full,5,111,generalization,15,0,4,0,NaN,NaN,0.144586
2,full,5,112,generalization,16,3,2,0,NaN,NaN,0.031460
2,full,5,113,generalization,17,0,5,1,NaN,NaN,0.031429
2,full,5,114,generalization,18,1,6,1,NaN,NaN,0.068557
2,full,5,115,generalization,19,5,6,0,NaN,NaN,0.000101
2,full,5,116,generalization,20,4,0,0,NaN,NaN,0.065338
2,full,5,117,generalization,21,3,6,0,NaN,NaN,0.000096
2,full,5,118,generalization,22,1,1,1,NaN,NaN,0.043662
2,full,5,119,generalization,23,1,3,1,NaN,NaN,0.086101
2,full,5,120,generalization,24,2,3,0,NaN,NaN,0.226518
2,full,5,121,generalization,25,5,0,1,NaN,NaN,0.113668
2,full,5,122,generalization,26,0,1,1,NaN,NaN,0.110014
2,full,5,123,generalization,27,0,0,0,NaN,NaN,0.000094
2,full,5,124,generalization,28,3,0,1,NaN,NaN,0.292376
2,full,5,125,generalization,29,3,4,0,NaN,NaN,0.284333
2,full,5,126,generalization,30,2,0,1,NaN,NaN,0.117924
2,full,5,127,generalization,31,1,0,1,NaN,NaN,0.055506
2,full,5,128,generalization,32,2,4,0,NaN,NaN,0.000094
2,full,5,129,generalization,33,6,1,0,NaN,NaN,0.032630
2,full,5,130,generalization,34,6,4,1,NaN,NaN,0.685780
2,full,5,131,generalization,35,4,2,1,NaN,NaN,0.007825
2,full,5,132,generalization,36,4,6,0,NaN,NaN,0.000104
2,full,5,133,generalization,37,3,3,1,NaN,NaN,0.579740
2,full,5,134,generalization,38,6,6,0,NaN,NaN,0.148563
2,full,5,135,generalization,39,5,4,1,NaN,NaN,0.122873
2,full,5,136,generalization,40,4,3,0,NaN,NaN,0.555703
2,full,5,137,generalization,41,6,5,1,NaN,NaN,0.220494
2,full,5,138,generalization,42,1,2,0,NaN,NaN,0.132863
2,full,5,139,generalization,43,6,0,1,NaN,NaN,0.226848
2,full,5,140,generalization,44,2,2,0,NaN,NaN,1.255149
2,full,5,141,generalization,45,5,2,1,NaN,NaN,0.000138
2,full,5,142,generalization,46,5,5,1,NaN,NaN,0.587135
2,full,5,143,generalization,47,5,3,0,NaN,NaN,0.085503
2,full,5,144,generalization,48,4,5,0,NaN,NaN,0.000091
2,full,5,145,generalization,49,2,5,1,NaN,NaN,0.192687
3,full,8,1,training,1,0,0,0,0,1,2.794485
3,full,8,2,training,2,1,5,1,1,1,0.000154
3,full,8,3,training,3,6,6,0,1,0,0.323179
3,full,8,4,training,4,0,6,1,0,0,0.597989
3,full,8,5,training,5,6,0,1,0,0,1.003197
3,full,8,6,training,6,5,5,0,0,1,0.425017
3,full,8,7,training,7,5,1,1,1,1,0.302247
3,full,8,8,training,8,1,1,0,1,0,0.406971
3,full,8,9,training,9,1,5,1,0,0,1.234498
3,full,8,10,training,10,5,1,1,0,0,0.951331
3,full,8,11,training,11,0,0,0,1,0,0.754917
3,full,8,12,training,12,6,0,1,0,0,0.689708
3,full,8,13,training,13,6,6,0,0,1,0.887987
3,full,8,14,training,14,5,5,0,1,0,0.062380
3,full,8,15,training,15,0,6,1,1,1,0.000150
3,full,8,16,training,16,1,1,0,1,0,0.224311
3,full,8,17,training,17,0,6,1,0,0,1.341467
3,full,8,18,training,18,1,5,1,1,1,0.386183
3,full,8,19,training,19,6,0,1,1,1,0.733351
3,full,8,20,training,20,5,5,0,0,1,1.529694
3,full,8,21,training,21,0,0,0,0,1,1.210515
3,full,8,22,training,22,6,6,0,1,0,0.000160
3,full,8,23,training,23,5,1,1,1,1,1.105600
3,full,8,24,training,24,1,1,0,1,0,0.097557
3,full,8,25,training,25,6,6,0,0,1,1.398297
3,full,8,26,training,26,0,6,1,1,1,0.596303
3,full,8,27,training,27,0,0,0,0,1,0.035855
3,full,8,28,training,28,5,5,0,1,0,0.248297
3,full,8,29,training,29,6,0,1,1,1,1.316573
3,full,8,30,training,30,1,5,1,0,0,1.494909
3,full,8,31,training,31,1,1,0,0,1,2.172826
3,full,8,32,training,32,5,1,1,1,1,0.000149
3,full,8,33,training,33,0,0,0,0,1,1.241607
3,full,8,34,training,34,0,6,1,0,0,0.845149
3,full,8,35,training,35,5,1,1,0,0,0.468429
3,full,8,36,training,36,1,1,0,0,1,0.699553
3,full,8,37,training,37,6,0,1,1,1,0.000143
3,full,8,38,training,38,6,6,0,0,1,1.017832
3,full,8,39,training,39,1,5,1,0,0,1.187361
3,full,8,40,training,40,5,5,0,0,1,0.967351
3,full,8,41,training,41,1,5,1,1,1,1.498170
3,full,8,42,training,42,1,1,0,0,1,0.457349
3,full,8,43,training,43,0,0,0,0,1,1.369681
3,full,8,44,training,44,6,6,0,0,1,0.195661
3,full,8,45,training,45,5,1,1,0,0,0.608020
3,full,8,46,training,46,6,0,1,1,1,0.709183
3,full,8,47,training,47,5,5,0,0,1,0.000101
3,full,8,48,training,48,0,6,1,0,0,0.000095
3,full,8,49,training,49,6,6,0,0,1,0.056733
3,full,8,50,training,50,6,0,1,0,0,0.935078
3,full,8,51,training,51,5,1,1,1,1,0.000145
3,full,8,52,training,52,0,6,1,0,0,0.466553
3,full,8,53,training,53,0,0,0,1,0,0.079765
3,full,8,54,training,54,1,5,1,1,1,0.296573
3,full,8,55,training,55,5,5,0,0,1,1.094066
3,full,8,56,training,56,1,1,0,1,0,0.082497
3,full,8,57,training,57,0,6,1,1,1,0.262089
3,full,8,58,training,58,6,0,1,0,0,0.901212
3,full,8,59,training,59,0,0,0,0,1,0.574343
3,full,8,60,training,60,6,6,0,0,1,0.000103
3,full,8,61,training,61,5,5,0,0,1,0.319524
3,full,8,62,training,62,1,5,1,1,1,0.000143
3,full,8,63,training,63,5,1,1,0,0,0.553469
3,full,8,64,training,64,1,1,0,0,1,0.000102
3,full,8,65,training,65,0,0,0,0,1,0.000090
3,full,8,66,training,66,1,5,1,1,1,0.268171
3,full,8,67,training,67,5,1,1,1,1,0.051760
3,full,8,68,training,68,5,5,0,0,1,0.872916
3,full,8,69,training,69,6,0,1,1,1,2.527286
3,full,8,70,training,70,1,1,0,0,1,0.280830
3,full,8,71,training,71,0,6,1,1,1,0.048438
3,full,8,72,training,72,6,6,0,0,1,0.785585
3,full,8,73,training,73,0,0,0,0,1,2.843870
3,full,8,74,training,74,0,6,1,1,1,0.000142
3,full,8,75,training,75,1,5,1,1,1,1.133026
3,full,8,76,training,76,1,1,0,0,1,1.572265
3,full,8,77,training,77,6,6,0,0,1,1.466919
3,full,8,78,training,78,5,5,0,0,1,0.381738
3,full,8,79,training,79,6,0,1,1,1,0.000143
3,full,8,80,training,80,5,1,1,1,1,0.000569
3,full,8,81,training,81,0,0,0,0,1,0.252899
3,full,8,82,training,82,5,1,1,1,1,1.579256
3,full,8,83,training,83,0,6,1,1,1,0.468760
3,full,8,84,training,84,1,5,1,1,1,0.000153
3,full,8,85,training,85,6,0,1,1,1,2.024692
3,full,8,86,training,86,1,1,0,0,1,0.188244
3,full,8,87,training,87,6,6,0,0,1,0.651391
3,full,8,88,training,88,5,5,0,0,1,0.731807
3,full,8,89,training,89,0,6,1,1,1,1.847378
3,full,8,90,training,90,6,0,1,1,1,1.257727
3,full,8,91,training,91,5,5,0,0,1,1.595675
3,full,8,92,training,92,0,0,0,0,1,0.101275
3,full,8,93,training,93,1,5,1,1,1,2.018459
3,full,8,94,training,94,1,1,0,0,1,0.717930
3,full,8,95,training,95,5,1,1,1,1,1.460290
3,full,8,96,training,96,6,6,0,0,1,0.286239
3,full,8,97,generalization,1,0,2,0,NaN,NaN,3.348117
3,full,8,98,generalization,2,2,4,0,NaN,NaN,4.576403
3,full,8,99,generalization,3,1,5,1,NaN,NaN,1.197282
3,full,8,100,generalization,4,6,3,0,NaN,NaN,0.865213
3,full,8,101,generalization,5,5,4,0,NaN,NaN,0.062374
3,full,8,102,generalization,6,5,0,1,NaN,NaN,1.405970
3,full,8,103,generalization,7,3,0,1,NaN,NaN,0.075934
3,full,8,104,generalization,8,5,3,0,NaN,NaN,1.066280
3,full,8,105,generalization,9,5,5,0,NaN,NaN,1.935826
3,full,8,106,generalization,10,0,3,1,NaN,NaN,1.222228
3,full,8,107,generalization,11,2,6,1,NaN,NaN,0.000143
3,full,8,108,generalization,12,2,0,0,NaN,NaN,0.620128
3,full,8,109,generalization,13,4,4,0,NaN,NaN,0.365293
3,full,8,110,generalization,14,6,0,1,NaN,NaN,0.492510
3,full,8,111,generalization,15,1,1,0,NaN,NaN,0.288971
3,full,8,112,generalization,16,4,3,0,NaN,NaN,0.223993
3,full,8,113,generalization,17,0,5,1,NaN,NaN,0.792075
3,full,8,114,generalization,18,1,4,1,NaN,NaN,0.671556
3,full,8,115,generalization,19,0,0,0,NaN,NaN,0.718334
3,full,8,116,generalization,20,6,5,0,NaN,NaN,0.806265
3,full,8,117,generalization,21,1,2,0,NaN,NaN,0.391485
3,full,8,118,generalization,22,6,1,0,NaN,NaN,0.013595
3,full,8,119,generalization,23,3,6,1,NaN,NaN,0.453028
3,full,8,120,generalization,24,4,5,1,NaN,NaN,0.435366
3,full,8,121,generalization,25,5,6,1,NaN,NaN,1.586997
3,full,8,122,generalization,26,3,1,0,NaN,NaN,0.573389
3,full,8,123,generalization,27,4,0,0,NaN,NaN,0.966974
3,full,8,124,generalization,28,3,5,1,NaN,NaN,1.128525
3,full,8,125,generalization,29,3,2,1,NaN,NaN,1.119277
3,full,8,126,generalization,30,1,3,0,NaN,NaN,0.607224
3,full,8,127,generalization,31,4,2,0,NaN,NaN,1.168810
3,full,8,128,generalization,32,4,6,1,NaN,NaN,0.024383
3,full,8,129,generalization,33,0,4,0,NaN,NaN,0.243918
3,full,8,130,generalization,34,0,6,1,NaN,NaN,0.366324
3,full,8,131,generalization,35,2,5,1,NaN,NaN,0.379889
3,full,8,132,generalization,36,3,3,0,NaN,NaN,1.068294
3,full,8,133,generalization,37,2,1,0,NaN,NaN,0.530653
3,full,8,134,generalization,38,5,2,1,NaN,NaN,0.836962
3,full,8,135,generalization,39,1,0,0,NaN,NaN,1.330115
3,full,8,136,generalization,40,6,6,0,NaN,NaN,0.410132
3,full,8,137,generalization,41,2,3,0,NaN,NaN,0.000090
3,full,8,138,generalization,42,4,1,1,NaN,NaN,0.174497
3,full,8,139,generalization,43,6,4,1,NaN,NaN,0.172826
3,full,8,140,generalization,44,1,6,1,NaN,NaN,0.534454
3,full,8,141,generalization,45,3,4,0,NaN,NaN,0.124020
3,full,8,142,generalization,46,6,2,0,NaN,NaN,0.620392
3,full,8,143,generalization,47,0,1,0,NaN,NaN,0.325624
3,full,8,144,generalization,48,5,1,1,NaN,NaN,0.291903
3,full,8,145,generalization,49,2,2,0,NaN,NaN,0.500737
4,full,5,1,training,1,1,5,1,0,0,2.361373
4,full,5,2,training,2,1,1,0,1,0,0.358474
4,full,5,3,training,3,0,6,1,0,0,0.130065
4,full,5,4,training,4,0,0,0,0,1,0.858842
4,full,5,5,training,5,5,1,1,0,0,0.409154
4,full,5,6,training,6,6,0,1,1,1,0.019151
4,full,5,7,training,7,5,5,0,0,1,0.521513
4,full,5,8,training,8,6,6,0,0,1,0.089875
4,full,5,9,training,9,5,1,1,1,1,0.000138
4,full,5,10,training,10,0,6,1,0,0,3.013350
4,full,5,11,training,11,1,5,1,1,1,0.277406
4,full,5,12,training,12,6,0,1,1,1,0.197346
4,full,5,13,training,13,0,0,0,0,1,0.000095
4,full,5,14,training,14,1,1,0,0,1,0.416900
4,full,5,15,training,15,5,5,0,0,1,0.792837
4,full,5,16,training,16,6,6,0,0,1,0.613171
4,full,5,17,training,17,0,0,0,0,1,0.335170
4,full,5,18,training,18,6,6,0,0,1,0.795910
4,full,5,19,training,19,6,0,1,1,1,0.387499
4,full,5,20,training,20,5,1,1,1,1,0.543097
4,full,5,21,training,21,1,1,0,0,1,0.137502
4,full,5,22,training,22,1,5,1,1,1,0.000149
4,full,5,23,training,23,0,6,1,1,1,0.578549
4,full,5,24,training,24,5,5,0,0,1,0.466118
4,full,5,25,training,25,6,0,1,1,1,0.000143
4,full,5,26,training,26,0,6,1,1,1,0.378125
4,full,5,27,training,27,0,0,0,0,1,0.000095
4,full,5,28,training,28,5,1,1,1,1,0.176833
4,full,5,29,training,29,1,5,1,1,1,0.154833
4,full,5,30,training,30,6,6,0,0,1,0.646793
4,full,5,31,training,31,5,5,0,0,1,0.617589
4,full,5,32,training,32,1,1,0,0,1,0.149868
4,full,5,33,training,33,5,1,1,1,1,0.241469
4,full,5,34,training,34,1,1,0,0,1,0.429848
4,full,5,35,training,35,1,5,1,1,1,0.696968
4,full,5,36,training,36,6,0,1,1,1,0.000139
4,full,5,37,training,37,0,0,0,0,1,0.361440
4,full,5,38,training,38,6,6,0,1,0,0.000144
4,full,5,39,training,39,0,6,1,1,1,0.524564
4,full,5,40,training,40,5,5,0,0,1,0.778388
4,full,5,41,training,41,5,1,1,1,1,0.750416
4,full,5,42,training,42,6,6,0,0,1,0.257583
4,full,5,43,training,43,0,6,1,1,1,0.224056
4,full,5,44,training,44,1,1,0,0,1,3.948721
4,full,5,45,training,45,0,0,0,0,1,0.385952
4,full,5,46,training,46,6,0,1,1,1,0.671911
4,full,5,47,training,47,1,5,1,0,0,0.672261
4,full,5,48,training,48,5,5,0,0,1,0.528252
4,full,5,49,training,49,5,5,0,0,1,0.109331
4,full,5,50,training,50,1,5,1,1,1,0.096164
4,full,5,51,training,51,1,1,0,0,1,0.003299
4,full,5,52,training,52,6,0,1,1,1,0.537200
4,full,5,53,training,53,6,6,0,0,1,0.000105
4,full,5,54,training,54,5,1,1,1,1,0.658411
4,full,5,55,training,55,0,0,0,0,1,0.494814
4,full,5,56,training,56,0,6,1,1,1,0.000139
4,full,5,57,training,57,6,6,0,0,1,0.000089
4,full,5,58,training,58,0,0,0,0,1,0.000091
4,full,5,59,training,59,5,1,1,1,1,0.000151
4,full,5,60,training,60,5,5,0,0,1,0.167826
4,full,5,61,training,61,1,1,0,0,1,1.051436
4,full,5,62,training,62,0,6,1,1,1,0.335894
4,full,5,63,training,63,1,5,1,1,1,0.312898
4,full,5,64,training,64,6,0,1,1,1,0.120137
4,full,5,65,training,65,5,1,1,1,1,0.332458
4,full,5,66,training,66,1,1,0,0,1,0.187683
4,full,5,67,training,67,6,6,0,0,1,1.670803
4,full,5,68,training,68,5,5,0,0,1,0.346740
4,full,5,69,training,69,0,0,0,1,0,0.000143
4,full,5,70,training,70,1,5,1,1,1,1.976270
4,full,5,71,training,71,6,0,1,1,1,0.000148
4,full,5,72,training,72,0,6,1,1,1,0.000141
4,full,5,73,training,73,5,1,1,0,0,0.209789
4,full,5,74,training,74,1,5,1,0,0,0.000106
4,full,5,75,training,75,0,0,0,0,1,1.861718
4,full,5,76,training,76,6,6,0,0,1,0.397660
4,full,5,77,training,77,1,1,0,0,1,1.832384
4,full,5,78,training,78,5,5,0,0,1,0.800837
4,full,5,79,training,79,0,6,1,1,1,0.053225
4,full,5,80,training,80,6,0,1,1,1,0.306413
4,full,5,81,training,81,0,0,0,0,1,0.000093
4,full,5,82,training,82,5,1,1,1,1,0.534656
4,full,5,83,training,83,6,6,0,0,1,1.028182
4,full,5,84,training,84,6,0,1,1,1,0.311045
4,full,5,85,training,85,1,5,1,1,1,0.468997
4,full,5,86,training,86,5,5,0,0,1,1.098119
4,full,5,87,training,87,1,1,0,0,1,1.945263
4,full,5,88,training,88,0,6,1,1,1,2.510430
4,full,5,89,training,89,0,6,1,1,1,1.638836
4,full,5,90,training,90,1,1,0,0,1,0.000104
4,full,5,91,training,91,6,0,1,1,1,1.158385
4,full,5,92,training,92,1,5,1,1,1,0.187115
4,full,5,93,training,93,0,0,0,0,1,2.302740
4,full,5,94,training,94,5,5,0,0,1,0.517055
4,full,5,95,training,95,5,1,1,1,1,0.077423
4,full,5,96,training,96,6,6,0,0,1,0.012606
4,full,5,97,generalization,1,4,4,0,NaN,NaN,1.278925
4,full,5,98,generalization,2,2,6,1,NaN,NaN,1.282004
4,full,5,99,generalization,3,5,0,1,NaN,NaN,0.331287
4,full,5,100,generalization,4,3,3,1,NaN,NaN,1.103983
4,full,5,101,generalization,5,1,0,0,NaN,NaN,0.333091
4,full,5,102,generalization,6,0,2,0,NaN,NaN,2.579382
4,full,5,103,generalization,7,1,4,1,NaN,NaN,0.805047
4,full,5,104,generalization,8,3,4,0,NaN,NaN,3.761801
4,full,5,105,generalization,9,5,2,1,NaN,NaN,0.229766
4,full,5,106,generalization,10,0,6,1,NaN,NaN,0.957810
4,full,5,107,generalization,11,2,3,1,NaN,NaN,4.452929
4,full,5,108,generalization,12,2,4,1,NaN,NaN,0.843662
4,full,5,109,generalization,13,3,0,1,NaN,NaN,5.287591
4,full,5,110,generalization,14,6,4,0,NaN,NaN,0.043980
4,full,5,111,generalization,15,0,0,0,NaN,NaN,0.102728
4,full,5,112,generalization,16,4,1,1,NaN,NaN,0.754722
4,full,5,113,generalization,17,5,1,1,NaN,NaN,0.673109
4,full,5,114,generalization,18,2,1,1,NaN,NaN,1.635065
4,full,5,115,generalization,19,2,2,1,NaN,NaN,1.671917
4,full,5,116,generalization,20,4,5,0,NaN,NaN,0.000089
4,full,5,117,generalization,21,2,5,1,NaN,NaN,1.704240
4,full,5,118,generalization,22,0,5,1,NaN,NaN,0.562134
4,full,5,119,generalization,23,5,3,0,NaN,NaN,3.561301
4,full,5,120,generalization,24,6,1,1,NaN,NaN,0.431277
4,full,5,121,generalization,25,1,2,0,NaN,NaN,2.875573
4,full,5,122,generalization,26,6,0,1,NaN,NaN,0.533972
4,full,5,123,generalization,27,0,3,0,NaN,NaN,2.372368
4,full,5,124,generalization,28,3,5,0,NaN,NaN,4.105415
4,full,5,125,generalization,29,1,3,0,NaN,NaN,0.963407
4,full,5,126,generalization,30,0,4,0,NaN,NaN,1.237479
4,full,5,127,generalization,31,4,2,1,NaN,NaN,1.224687
4,full,5,128,generalization,32,3,1,1,NaN,NaN,0.875316
4,full,5,129,generalization,33,1,6,1,NaN,NaN,0.131323
4,full,5,130,generalization,34,2,0,0,NaN,NaN,1.151268
4,full,5,131,generalization,35,3,6,0,NaN,NaN,2.141171
4,full,5,132,generalization,36,6,6,0,NaN,NaN,0.236080
4,full,5,133,generalization,37,6,2,1,NaN,NaN,0.938426
4,full,5,134,generalization,38,1,1,0,NaN,NaN,0.243953
4,full,5,135,generalization,39,5,5,0,NaN,NaN,1.803231
4,full,5,136,generalization,40,4,3,0,NaN,NaN,0.169920
4,full,5,137,generalization,41,4,6,0,NaN,NaN,0.000094
4,full,5,138,generalization,42,6,5,0,NaN,NaN,1.046263
4,full,5,139,generalization,43,4,0,1,NaN,NaN,1.401037
4,full,5,140,generalization,44,5,6,0,NaN,NaN,0.000091
4,full,5,141,generalization,45,1,5,1,NaN,NaN,0.413022
4,full,5,142,generalization,46,0,1,0,NaN,NaN,0.071369
4,full,5,143,generalization,47,3,2,1,NaN,NaN,0.000146
4,full,5,144,generalization,48,5,4,0,NaN,NaN,0.440050
4,full,5,145,generalization,49,6,3,0,NaN,NaN,0.970570
5,full,8,1,training,1,1,5,1,0,0,2.102093
5,full,8,2,training,2,6,6,0,1,0,0.961712
5,full,8,3,training,3,1,1,0,1,0,1.291971
5,full,8,4,training,4,6,0,1,1,1,2.734271
5,full,8,5,training,5,0,0,0,0,1,0.715406
5,full,8,6,training,6,5,5,0,0,1,1.313772
5,full,8,7,training,7,5,1,1,1,1,0.093736
5,full,8,8,training,8,0,6,1,1,1,0.553802
5,full,8,9,training,9,1,1,0,0,1,0.298104
5,full,8,10,training,10,6,0,1,1,1,1.994811
5,full,8,11,training,11,5,5,0,0,1,1.115210
5,full,8,12,training,12,1,5,1,1,1,0.000144
5,full,8,13,training,13,6,6,0,0,1,0.742341
5,full,8,14,training,14,0,6,1,1,1,0.017085
5,full,8,15,training,15,5,1,1,0,0,0.501108
5,full,8,16,training,16,0,0,0,0,1,0.591868
5,full,8,17,training,17,5,1,1,1,1,0.075431
5,full,8,18,training,18,6,6,0,0,1,0.001749
5,full,8,19,training,19,5,5,0,1,0,2.178578
5,full,8,20,training,20,0,0,0,0,1,1.342904
5,full,8,21,training,21,6,0,1,1,1,1.964831
5,full,8,22,training,22,1,5,1,1,1,2.090776
5,full,8,23,training,23,0,6,1,1,1,2.329939
5,full,8,24,training,24,1,1,0,0,1,1.389881
5,full,8,25,training,25,0,0,0,0,1,0.107481
5,full,8,26,training,26,6,6,0,0,1,0.647454
5,full,8,27,training,27,6,0,1,1,1,1.298587
5,full,8,28,training,28,1,1,0,0,1,0.187768
5,full,8,29,training,29,0,6,1,1,1,0.000150
5,full,8,30,training,30,5,5,0,0,1,1.372158
5,full,8,31,training,31,1,5,1,1,1,0.000141
5,full,8,32,training,32,5,1,1,1,1,0.000161
5,full,8,33,training,33,0,6,1,1,1,0.717164
5,full,8,34,training,34,1,5,1,1,1,2.431948
5,full,8,35,training,35,1,1,0,0,1,0.166696
5,full,8,36,training,36,5,5,0,0,1,0.027480
5,full,8,37,training,37,6,6,0,0,1,1.450997
5,full,8,38,training,38,5,1,1,1,1,0.813781
5,full,8,39,training,39,6,0,1,1,1,0.765358
5,full,8,40,training,40,0,0,0,0,1,1.033344
5,full,8,41,training,41,5,1,1,1,1,2.486422
5,full,8,42,training,42,0,0,0,0,1,2.449944
5,full,8,43,training,43,5,5,0,0,1,0.240776
5,full,8,44,training,44,1,1,0,0,1,1.656693
5,full,8,45,training,45,1,5,1,1,1,0.411437
5,full,8,46,training,46,6,6,0,0,1,0.570979
5,full,8,47,training,47,6,0,1,1,1,0.002919
5,full,8,48,training,48,0,6,1,1,1,1.382070
5,full,8,49,training,49,6,0,1,1,1,0.044450
5,full,8,50,training,50,1,1,0,0,1,0.714027
5,full,8,51,training,51,6,6,0,0,1,0.971203
5,full,8,52,training,52,5,1,1,1,1,0.164794
5,full,8,53,training,53,0,6,1,1,1,0.075957
5,full,8,54,training,54,0,0,0,0,1,0.146329
5,full,8,55,training,55,1,5,1,1,1,0.046249
5,full,8,56,training,56,5,5,0,0,1,0.049035
5,full,8,57,training,57,1,5,1,1,1,0.640982
5,full,8,58,training,58,0,0,0,0,1,0.029340
5,full,8,59,training,59,1,1,0,0,1,2.291278
5,full,8,60,training,60,5,5,0,0,1,0.536770
5,full,8,61,training,61,5,1,1,1,1,0.573589
5,full,8,62,training,62,6,0,1,1,1,0.387971
5,full,8,63,training,63,0,6,1,1,1,0.973544
5,full,8,64,training,64,6,6,0,0,1,0.529854
5,full,8,65,training,65,1,5,1,1,1,0.894248
5,full,8,66,training,66,6,6,0,0,1,1.752645
5,full,8,67,training,67,0,0,0,0,1,0.556602
5,full,8,68,training,68,5,1,1,1,1,0.167753
5,full,8,69,training,69,5,5,0,0,1,0.135307
5,full,8,70,training,70,0,6,1,1,1,0.010513
5,full,8,71,training,71,1,1,0,0,1,0.466411
5,full,8,72,training,72,6,0,1,1,1,0.876848
5,full,8,73,training,73,5,1,1,1,1,7.419782
5,full,8,74,training,74,0,6,1,0,0,0.103062
5,full,8,75,training,75,5,5,0,0,1,1.570992
5,full,8,76,training,76,6,0,1,1,1,3.698848
5,full,8,77,training,77,1,1,0,0,1,0.228171
5,full,8,78,training,78,0,0,0,0,1,0.000090
5,full,8,79,training,79,1,5,1,1,1,0.325255
5,full,8,80,training,80,6,6,0,0,1,0.000094
5,full,8,81,training,81,6,6,0,0,1,0.220441
5,full,8,82,training,82,1,1,0,0,1,0.180828
5,full,8,83,training,83,1,5,1,1,1,0.322339
5,full,8,84,training,84,0,6,1,1,1,0.176301
5,full,8,85,training,85,5,5,0,0,1,0.493024
5,full,8,86,training,86,5,1,1,1,1,0.833467
5,full,8,87,training,87,0,0,0,0,1,0.298192
5,full,8,88,training,88,6,0,1,1,1,0.833743
5,full,8,89,training,89,1,1,0,0,1,0.118918
5,full,8,90,training,90,1,5,1,1,1,1.178442
5,full,8,91,training,91,5,1,1,1,1,0.000151
5,full,8,92,training,92,0,0,0,0,1,0.068464
5,full,8,93,training,93,5,5,0,0,1,0.163591
5,full,8,94,training,94,0,6,1,1,1,0.368425
5,full,8,95,training,95,6,0,1,1,1,1.132341
5,full,8,96,training,96,6,6,0,0,1,0.014728
5,full,8,97,generalization,1,4,5,0,NaN,NaN,1.075345
5,full,8,98,generalization,2,2,0,0,NaN,NaN,2.085239
5,full,8,99,generalization,3,2,4,1,NaN,NaN,0.588558
5,full,8,100,generalization,4,3,5,1,NaN,NaN,1.389285
5,full,8,101,generalization,5,4,3,1,NaN,NaN,6.293891
5,full,8,102,generalization,6,5,0,1,NaN,NaN,0.658692
5,full,8,103,generalization,7,4,6,0,NaN,NaN,1.557949
5,full,8,104,generalization,8,0,4,1,NaN,NaN,0.924679
5,full,8,105,generalization,9,5,6,0,NaN,NaN,0.017443
5,full,8,106,generalization,10,5,1,1,NaN,NaN,0.000144
5,full,8,107,generalization,11,6,5,0,NaN,NaN,0.000099
5,full,8,108,generalization,12,3,3,0,NaN,NaN,0.673323
5,full,8,109,generalization,13,2,1,0,NaN,NaN,0.349305
5,full,8,110,generalization,14,0,6,1,NaN,NaN,0.502506
5,full,8,111,generalization,15,1,2,0,NaN,NaN,0.080117
5,full,8,112,generalization,16,1,4,1,NaN,NaN,1.410084
5,full,8,113,generalization,17,5,5,0,NaN,NaN,0.562060
5,full,8,114,generalization,18,6,3,1,NaN,NaN,0.445978
5,full,8,115,generalization,19,3,0,0,NaN,NaN,0.000093
5,full,8,116,generalization,20,0,3,1,NaN,NaN,0.487113
5,full,8,117,generalization,21,1,5,1,NaN,NaN,1.054253
5,full,8,118,generalization,22,3,2,0,NaN,NaN,0.142731
5,full,8,119,generalization,23,6,6,0,NaN,NaN,0.349100
5,full,8,120,generalization,24,2,2,0,NaN,NaN,4.365412
5,full,8,121,generalization,25,0,0,0,NaN,NaN,0.418232
5,full,8,122,generalization,26,1,0,0,NaN,NaN,0.124132
5,full,8,123,generalization,27,2,5,1,NaN,NaN,1.234130
5,full,8,124,generalization,28,4,2,1,NaN,NaN,0.818886
5,full,8,125,generalization,29,4,0,1,NaN,NaN,2.723657
5,full,8,126,generalization,30,3,6,0,NaN,NaN,0.242044
5,full,8,127,generalization,31,6,4,0,NaN,NaN,0.895131
5,full,8,128,generalization,32,0,1,1,NaN,NaN,0.031174
5,full,8,129,generalization,33,3,4,0,NaN,NaN,0.609977
5,full,8,130,generalization,34,4,1,1,NaN,NaN,1.013899
5,full,8,131,generalization,35,1,3,1,NaN,NaN,0.000138
5,full,8,132,generalization,36,6,2,1,NaN,NaN,0.569088
5,full,8,133,generalization,37,6,0,1,NaN,NaN,0.363380
5,full,8,134,generalization,38,5,4,0,NaN,NaN,1.008286
5,full,8,135,generalization,39,4,4,0,NaN,NaN,0.000110
5,full,8,136,generalization,40,2,3,1,NaN,NaN,1.460118
5,full,8,137,generalization,41,2,6,1,NaN,NaN,0.291761
5,full,8,138,generalization,42,0,5,1,NaN,NaN,0.628522
5,full,8,139,generalization,43,3,1,0,NaN,NaN,0.000098
5,full,8,140,generalization,44,5,3,0,NaN,NaN,1.220008
5,full,8,141,generalization,45,0,2,0,NaN,NaN,0.000091
5,full,8,142,generalization,46,1,1,0,NaN,NaN,0.201197
5,full,8,143,generalization,47,1,6,1,NaN,NaN,0.617499
5,full,8,144,generalization,48,5,2,0,NaN,NaN,1.663137
5,full,8,145,generalization,49,6,1,1,NaN,NaN,0.069171
6,full,3,1,training,1,0,0,0,1,0,9.901134
6,full,3,2,training,2,6,6,0,1,0,1.925994
6,full,3,3,training,3,1,5,1,0,0,0.139482
6,full,3,4,training,4,0,6,1,1,1,0.453452
6,full,3,5,training,5,5,1,1,0,0,1.276657
6,full,3,6,training,6,6,0,1,0,0,5.524833
6,full,3,7,training,7,1,1,0,0,1,0.276501
6,full,3,8,training,8,5,5,0,1,0,0.118836
6,full,3,9,training,9,6,6,0,0,1,1.156701
6,full,3,10,training,10,5,5,0,0,1,0.188330
6,full,3,11,training,11,1,1,0,0,1,1.043157
6,full,3,12,training,12,0,6,1,0,0,0.565875
6,full,3,13,training,13,0,0,0,0,1,0.033108
6,full,3,14,training,14,1,5,1,1,1,0.102164
6,full,3,15,training,15,6,0,1,0,0,1.064896
6,full,3,16,training,16,5,1,1,0,0,0.293715
6,full,3,17,training,17,0,0,0,1,0,1.459664
6,full,3,18,training,18,5,1,1,1,1,2.076390
6,full,3,19,training,19,1,1,0,0,1,0.095165
6,full,3,20,training,20,6,6,0,1,0,1.395141
6,full,3,21,training,21,6,0,1,1,1,2.754329
6,full,3,22,training,22,0,6,1,1,1,1.157027
6,full,3,23,training,23,1,5,1,1,1,0.149815
6,full,3,24,training,24,5,5,0,0,1,0.753814
6,full,3,25,training,25,6,0,1,1,1,0.021799
6,full,3,26,training,26,6,6,0,0,1,5.310823
6,full,3,27,training,27,0,6,1,1,1,0.496071
6,full,3,28,training,28,5,5,0,0,1,0.862395
6,full,3,29,training,29,0,0,0,0,1,2.988314
6,full,3,30,training,30,1,5,1,1,1,0.000143
6,full,3,31,training,31,1,1,0,0,1,4.216304
6,full,3,32,training,32,5,1,1,1,1,1.565010
6,full,3,33,training,33,1,5,1,1,1,7.493622
6,full,3,34,training,34,1,1,0,0,1,0.236943
6,full,3,35,training,35,6,0,1,1,1,1.906493
6,full,3,36,training,36,0,6,1,1,1,0.102868
6,full,3,37,training,37,5,5,0,0,1,0.284827
6,full,3,38,training,38,6,6,0,0,1,0.043676
6,full,3,39,training,39,5,1,1,1,1,0.058744
6,full,3,40,training,40,0,0,0,0,1,0.039523
6,full,3,41,training,41,0,6,1,1,1,0.336388
6,full,3,42,training,42,1,1,0,0,1,0.000103
6,full,3,43,training,43,6,0,1,1,1,0.938687
6,full,3,44,training,44,5,5,0,0,1,0.508608
6,full,3,45,training,45,0,0,0,0,1,0.298184
6,full,3,46,training,46,6,6,0,0,1,0.059008
6,full,3,47,training,47,1,5,1,1,1,0.366536
6,full,3,48,training,48,5,1,1,1,1,1.024512
6,full,3,49,training,49,1,1,0,0,1,0.023313
6,full,3,50,training,50,6,0,1,1,1,0.315660
6,full,3,51,training,51,6,6,0,0,1,0.020461
6,full,3,52,training,52,5,5,0,0,1,0.281235
6,full,3,53,training,53,5,1,1,1,1,0.336757
6,full,3,54,training,54,1,5,1,1,1,0.312371
6,full,3,55,training,55,0,6,1,1,1,0.336722
6,full,3,56,training,56,0,0,0,0,1,0.476268
6,full,3,57,training,57,1,1,0,0,1,0.054208
6,full,3,58,training,58,1,5,1,1,1,0.117035
6,full,3,59,training,59,6,6,0,0,1,0.268226
6,full,3,60,training,60,5,5,0,0,1,0.176149
6,full,3,61,training,61,0,0,0,0,1,0.000100
6,full,3,62,training,62,6,0,1,1,1,0.055729
6,full,3,63,training,63,5,1,1,1,1,0.196106
6,full,3,64,training,64,0,6,1,1,1,0.330518
6,full,3,65,training,65,6,6,0,0,1,0.291649
6,full,3,66,training,66,1,5,1,1,1,0.000148
6,full,3,67,training,67,0,6,1,1,1,0.249591
6,full,3,68,training,68,6,0,1,1,1,0.380794
6,full,3,69,training,69,1,1,0,0,1,0.168752
6,full,3,70,training,70,5,1,1,1,1,0.495509
6,full,3,71,training,71,5,5,0,0,1,1.493851
6,full,3,72,training,72,0,0,0,0,1,0.024297
6,full,3,73,training,73,6,0,1,1,1,1.024625
6,full,3,74,training,74,5,5,0,0,1,0.332229
6,full,3,75,training,75,0,6,1,1,1,0.592968
6,full,3,76,training,76,6,6,0,0,1,1.080942
6,full,3,77,training,77,1,5,1,1,1,0.020136
6,full,3,78,training,78,5,1,1,1,1,0.357255
6,full,3,79,training,79,1,1,0,0,1,0.000110
6,full,3,80,training,80,0,0,0,0,1,0.185198
6,full,3,81,training,81,1,1,0,0,1,0.120059
6,full,3,82,training,82,5,5,0,0,1,0.571560
6,full,3,83,training,83,6,0,1,1,1,0.042723
6,full,3,84,training,84,0,6,1,1,1,0.160711
6,full,3,85,training,85,1,5,1,1,1,0.062694
6,full,3,86,training,86,5,1,1,1,1,0.228644
6,full,3,87,training,87,0,0,0,0,1,1.232642
6,full,3,88,training,88,6,6,0,0,1,0.426535
6,full,3,89,training,89,6,0,1,1,1,0.781717
6,full,3,90,training,90,5,1,1,0,0,0.710167
6,full,3,91,training,91,1,5,1,1,1,0.156090
6,full,3,92,training,92,0,0,0,0,1,0.128060
6,full,3,93,training,93,5,5,0,0,1,0.098830
6,full,3,94,training,94,6,6,0,0,1,1.566326
6,full,3,95,training,95,1,1,0,1,0,0.000148
6,full,3,96,training,96,0,6,1,0,0,2.871974
6,full,3,97,generalization,1,0,5,1,NaN,NaN,4.242156
6,full,3,98,generalization,2,3,4,1,NaN,NaN,4.811224
6,full,3,99,generalization,3,3,1,0,NaN,NaN,3.734409
6,full,3,100,generalization,4,1,2,0,NaN,NaN,7.018660
6,full,3,101,generalization,5,5,0,1,NaN,NaN,1.202343
6,full,3,102,generalization,6,0,3,0,NaN,NaN,5.249350
6,full,3,103,generalization,7,2,4,1,NaN,NaN,1.536584
6,full,3,104,generalization,8,5,4,0,NaN,NaN,3.128117
6,full,3,105,generalization,9,2,6,1,NaN,NaN,1.794490
6,full,3,106,generalization,10,2,1,0,NaN,NaN,0.808900
6,full,3,107,generalization,11,1,1,0,NaN,NaN,0.013331
6,full,3,108,generalization,12,4,0,1,NaN,NaN,0.000140
6,full,3,109,generalization,13,6,4,0,NaN,NaN,0.709633
6,full,3,110,generalization,14,6,5,0,NaN,NaN,0.000092
6,full,3,111,generalization,15,3,2,0,NaN,NaN,4.551169
6,full,3,112,generalization,16,3,5,1,NaN,NaN,0.220274
6,full,3,113,generalization,17,1,0,0,NaN,NaN,0.249081
6,full,3,114,generalization,18,0,1,0,NaN,NaN,0.642279
6,full,3,115,generalization,19,2,3,1,NaN,NaN,1.266652
6,full,3,116,generalization,20,0,6,1,NaN,NaN,0.266185
6,full,3,117,generalization,21,4,2,1,NaN,NaN,0.027438
6,full,3,118,generalization,22,5,5,1,NaN,NaN,0.933811
6,full,3,119,generalization,23,3,6,1,NaN,NaN,0.379369
6,full,3,120,generalization,24,4,5,1,NaN,NaN,0.951318
6,full,3,121,generalization,25,0,4,1,NaN,NaN,0.622439
6,full,3,122,generalization,26,5,1,1,NaN,NaN,0.570040
6,full,3,123,generalization,27,6,1,1,NaN,NaN,0.418706
6,full,3,124,generalization,28,1,5,1,NaN,NaN,0.486388
6,full,3,125,generalization,29,1,6,1,NaN,NaN,0.391896
6,full,3,126,generalization,30,6,3,0,NaN,NaN,0.564789
6,full,3,127,generalization,31,4,4,1,NaN,NaN,0.238297
6,full,3,128,generalization,32,0,0,0,NaN,NaN,2.035833
6,full,3,129,generalization,33,5,3,1,NaN,NaN,2.970978
6,full,3,130,generalization,34,4,3,1,NaN,NaN,0.358935
6,full,3,131,generalization,35,5,6,0,NaN,NaN,0.490181
6,full,3,132,generalization,36,4,1,1,NaN,NaN,0.282959
6,full,3,133,generalization,37,6,6,0,NaN,NaN,0.234912
6,full,3,134,generalization,38,0,2,0,NaN,NaN,0.955311
6,full,3,135,generalization,39,3,3,0,NaN,NaN,0.000089
6,full,3,136,generalization,40,6,2,1,NaN,NaN,2.327197
6,full,3,137,generalization,41,5,2,1,NaN,NaN,0.413214
6,full,3,138,generalization,42,3,0,0,NaN,NaN,2.020412
6,full,3,139,generalization,43,6,0,1,NaN,NaN,0.117165
6,full,3,140,generalization,44,2,5,1,NaN,NaN,0.048728
6,full,3,141,generalization,45,2,0,0,NaN,NaN,0.393830
6,full,3,142,generalization,46,1,3,1,NaN,NaN,0.375870
6,full,3,143,generalization,47,2,2,1,NaN,NaN,0.450631
6,full,3,144,generalization,48,1,4,1,NaN,NaN,0.461844
6,full,3,145,generalization,49,4,6,0,NaN,NaN,0.055407
7,full,8,1,training,1,5,5,0,0,1,3.666695
7,full,8,2,training,2,6,6,0,0,1,0.000105
7,full,8,3,training,3,1,1,0,0,1,1.501456
7,full,8,4,training,4,1,5,1,0,0,0.229050
7,full,8,5,training,5,0,6,1,1,1,0.205046
7,full,8,6,training,6,0,0,0,0,1,0.042235
7,full,8,7,training,7,5,1,1,0,0,0.571806
7,full,8,8,training,8,6,0,1,0,0,0.090172
7,full,8,9,training,9,1,5,1,1,1,0.056174
7,full,8,10,training,10,1,1,0,0,1,1.164903
7,full,8,11,training,11,6,6,0,1,0,1.077732
7,full,8,12,training,12,0,6,1,1,1,0.594040
7,full,8,13,training,13,5,1,1,0,0,1.438395
7,full,8,14,training,14,5,5,0,1,0,0.246411
7,full,8,15,training,15,0,0,0,1,0,0.542714
7,full,8,16,training,16,6,0,1,0,0,1.061513
7,full,8,17,training,17,6,6,0,0,1,1.063462
7,full,8,18,training,18,5,1,1,0,0,0.451429
7,full,8,19,training,19,1,5,1,1,1,0.561399
7,full,8,20,training,20,5,5,0,0,1,0.080642
7,full,8,21,training,21,0,0,0,1,0,0.000142
7,full,8,22,training,22,6,0,1,1,1,0.135754
7,full,8,23,training,23,0,6,1,1,1,0.524888
7,full,8,24,training,24,1,1,0,0,1,0.146073
7,full,8,25,training,25,1,1,0,0,1,0.334425
7,full,8,26,training,26,5,1,1,1,1,0.000140
7,full,8,27,training,27,0,0,0,0,1,0.107162
7,full,8,28,training,28,6,6,0,0,1,0.180764
7,full,8,29,training,29,6,0,1,1,1,0.000138
7,full,8,30,training,30,1,5,1,0,0,0.542688
7,full,8,31,training,31,5,5,0,0,1,0.140309
7,full,8,32,training,32,0,6,1,1,1,0.424320
7,full,8,33,training,33,5,5,0,0,1,0.449817
7,full,8,34,training,34,6,0,1,1,1,0.230202
7,full,8,35,training,35,0,0,0,1,0,0.000139
7,full,8,36,training,36,6,6,0,0,1,0.132158
7,full,8,37,training,37,1,1,0,0,1,0.248483
7,full,8,38,training,38,0,6,1,1,1,0.782835
7,full,8,39,training,39,1,5,1,1,1,0.531650
7,full,8,40,training,40,5,1,1,1,1,0.287176
7,full,8,41,training,41,6,6,0,0,1,0.189984
7,full,8,42,training,42,0,0,0,0,1,0.000092
7,full,8,43,training,43,5,5,0,0,1,0.769507
7,full,8,44,training,44,6,0,1,1,1,0.133106
7,full,8,45,training,45,1,5,1,0,0,0.215488
7,full,8,46,training,46,5,1,1,1,1,0.893372
7,full,8,47,training,47,0,6,1,0,0,0.000092
7,full,8,48,training,48,1,1,0,0,1,0.973291
7,full,8,49,training,49,0,6,1,1,1,0.377297
7,full,8,50,training,50,6,6,0,0,1,0.187334
7,full,8,51,training,51,5,1,1,1,1,0.003699
7,full,8,52,training,52,0,0,0,0,1,0.879193
7,full,8,53,training,53,1,1,0,0,1,0.520816
7,full,8,54,training,54,5,5,0,0,1,0.000091
7,full,8,55,training,55,6,0,1,1,1,1.000746
7,full,8,56,training,56,1,5,1,1,1,1.739473
7,full,8,57,training,57,6,6,0,0,1,1.099003
7,full,8,58,training,58,5,1,1,1,1,0.000144
7,full,8,59,training,59,0,0,0,0,1,0.299809
7,full,8,60,training,60,5,5,0,0,1,0.215739
7,full,8,61,training,61,1,5,1,1,1,0.000149
7,full,8,62,training,62,6,0,1,0,0,0.254110
7,full,8,63,training,63,1,1,0,0,1,0.556497
7,full,8,64,training,64,0,6,1,1,1,0.292462
7,full,8,65,training,65,6,0,1,1,1,0.500388
7,full,8,66,training,66,0,0,0,1,0,3.427031
7,full,8,67,training,67,0,6,1,1,1,0.000146
7,full,8,68,training,68,1,1,0,0,1,1.335010
7,full,8,69,training,69,1,5,1,1,1,0.695059
7,full,8,70,training,70,6,6,0,0,1,0.000092
7,full,8,71,training,71,5,5,0,0,1,0.833808
7,full,8,72,training,72,5,1,1,1,1,1.078537
7,full,8,73,training,73,6,6,0,0,1,0.019359
7,full,8,74,training,74,1,1,0,0,1,0.219206
7,full,8,75,training,75,6,0,1,1,1,0.088850
7,full,8,76,training,76,0,6,1,1,1,0.051223
7,full,8,77,training,77,5,1,1,1,1,0.326428
7,full,8,78,training,78,0,0,0,0,1,0.000100
7,full,8,79,training,79,5,5,0,0,1,0.267182
7,full,8,80,training,80,1,5,1,1,1,0.586677
7,full,8,81,training,81,0,6,1,1,1,1.027449
7,full,8,82,training,82,1,1,0,0,1,0.000090
7,full,8,83,training,83,6,0,1,1,1,0.039045
7,full,8,84,training,84,5,5,0,0,1,0.509439
7,full,8,85,training,85,5,1,1,1,1,0.810124
7,full,8,86,training,86,1,5,1,1,1,0.613358
7,full,8,87,training,87,0,0,0,0,1,0.725268
7,full,8,88,training,88,6,6,0,0,1,0.156888
7,full,8,89,training,89,5,5,0,0,1,0.025288
7,full,8,90,training,90,1,5,1,1,1,0.961636
7,full,8,91,training,91,1,1,0,0,1,0.296788
7,full,8,92,training,92,0,0,0,0,1,0.000103
7,full,8,93,training,93,5,1,1,1,1,0.155517
7,full,8,94,training,94,6,6,0,0,1,0.907097
7,full,8,95,training,95,0,6,1,1,1,0.916255
7,full,8,96,training,96,6,0,1,1,1,0.027833
7,full,8,97,generalization,1,5,4,0,NaN,NaN,4.794789
7,full,8,98,generalization,2,4,4,0,NaN,NaN,0.213292
7,full,8,99,generalization,3,0,3,1,NaN,NaN,0.175703
7,full,8,100,generalization,4,5,0,1,NaN,NaN,1.889176
7,full,8,101,generalization,5,3,1,0,NaN,NaN,0.150027
7,full,8,102,generalization,6,6,5,0,NaN,NaN,0.650359
7,full,8,103,generalization,7,1,1,0,NaN,NaN,0.564770
7,full,8,104,generalization,8,4,1,1,NaN,NaN,0.859866
7,full,8,105,generalization,9,0,1,0,NaN,NaN,1.362194
7,full,8,106,generalization,10,0,4,1,NaN,NaN,0.000142
7,full,8,107,generalization,11,4,3,0,NaN,NaN,0.696545
7,full,8,108,generalization,12,5,3,0,NaN,NaN,0.326621
7,full,8,109,generalization,13,4,6,0,NaN,NaN,1.079337
7,full,8,110,generalization,14,5,5,0,NaN,NaN,0.076564
7,full,8,111,generalization,15,2,5,1,NaN,NaN,0.699706
7,full,8,112,generalization,16,3,5,1,NaN,NaN,0.299283
7,full,8,113,generalization,17,1,6,1,NaN,NaN,0.635671
7,full,8,114,generalization,18,0,2,0,NaN,NaN,0.824842
7,full,8,115,generalization,19,2,6,1,NaN,NaN,1.127563
7,full,8,116,generalization,20,1,3,1,NaN,NaN,1.012355
7,full,8,117,generalization,21,0,6,1,NaN,NaN,0.221960
7,full,8,118,generalization,22,6,1,1,NaN,NaN,0.000137
7,full,8,119,generalization,23,3,4,1,NaN,NaN,0.161527
7,full,8,120,generalization,24,3,2,0,NaN,NaN,0.022719
7,full,8,121,generalization,25,6,0,1,NaN,NaN,0.725816
7,full,8,122,generalization,26,6,3,1,NaN,NaN,0.000150
7,full,8,123,generalization,27,1,5,1,NaN,NaN,0.279881
7,full,8,124,generalization,28,2,0,0,NaN,NaN,0.241778
7,full,8,125,generalization,29,5,2,1,NaN,NaN,0.022665
7,full,8,126,generalization,30,6,6,0,NaN,NaN,0.083714
7,full,8,127,generalization,31,3,3,0,NaN,NaN,0.413726
7,full,8,128,generalization,32,3,6,1,NaN,NaN,0.683639
7,full,8,129,generalization,33,1,0,0,NaN,NaN,0.655687
7,full,8,130,generalization,34,4,5,1,NaN,NaN,0.275206
7,full,8,131,generalization,35,4,2,0,NaN,NaN,0.747590
7,full,8,132,generalization,36,0,0,1,NaN,NaN,0.000140
7,full,8,133,generalization,37,2,3,0,NaN,NaN,0.971489
7,full,8,134,generalization,38,2,2,0,NaN,NaN,0.687512
7,full,8,135,generalization,39,6,4,1,NaN,NaN,0.000141
7,full,8,136,generalization,40,5,1,0,NaN,NaN,0.116673
7,full,8,137,generalization,41,5,6,0,NaN,NaN,0.309103
7,full,8,138,generalization,42,4,0,0,NaN,NaN,2.235757
7,full,8,139,generalization,43,6,2,1,NaN,NaN,1.103357
7,full,8,140,generalization,44,2,1,0,NaN,NaN,0.524544
7,full,8,141,generalization,45,1,4,1,NaN,NaN,0.230510
7,full,8,142,generalization,46,3,0,0,NaN,NaN,0.784871
7,full,8,143,generalization,47,0,5,1,NaN,NaN,0.548844
7,full,8,144,generalization,48,1,2,0,NaN,NaN,0.077283
7,full,8,145,generalization,49,2,4,1,NaN,NaN,0.242822
8,full,2,1,training,1,5,5,0,1,0,6.671454
8,full,2,2,training,2,6,6,0,1,0,2.002383
8,full,2,3,training,3,1,1,0,1,0,0.440420
8,full,2,4,training,4,0,6,1,0,0,0.235189
8,full,2,5,training,5,0,0,0,1,0,0.469548
8,full,2,6,training,6,1,5,1,1,1,0.488338
8,full,2,7,training,7,5,1,1,0,0,0.242342
8,full,2,8,training,8,6,0,1,1,1,0.272289
8,full,2,9,training,9,6,6,0,0,1,0.176676
8,full,2,10,training,10,1,1,0,0,1,0.404994
8,full,2,11,training,11,5,1,1,1,1,0.049405
8,full,2,12,training,12,1,5,1,1,1,0.530557
8,full,2,13,training,13,5,5,0,0,1,2.103979
8,full,2,14,training,14,6,0,1,1,1,0.000140
8,full,2,15,training,15,0,0,0,0,1,0.030846
8,full,2,16,training,16,0,6,1,1,1,0.781549
8,full,2,17,training,17,5,1,1,1,1,0.353193
8,full,2,18,training,18,1,5,1,1,1,0.518713
8,full,2,19,training,19,6,6,0,0,1,0.031094
8,full,2,20,training,20,5,5,0,0,1,0.000094
8,full,2,21,training,21,6,0,1,1,1,0.242219
8,full,2,22,training,22,0,6,1,1,1,0.063449
8,full,2,23,training,23,0,0,0,0,1,0.074585
8,full,2,24,training,24,1,1,0,0,1,0.684971
8,full,2,25,training,25,0,6,1,1,1,0.872144
8,full,2,26,training,26,5,1,1,0,0,0.220910
8,full,2,27,training,27,1,1,0,0,1,0.177226
8,full,2,28,training,28,0,0,0,0,1,0.000094
8,full,2,29,training,29,1,5,1,1,1,0.286767
8,full,2,30,training,30,5,5,0,0,1,0.811523
8,full,2,31,training,31,6,0,1,1,1,0.000146
8,full,2,32,training,32,6,6,0,0,1,0.060372
8,full,2,33,training,33,1,1,0,0,1,0.539880
8,full,2,34,training,34,6,6,0,0,1,0.463827
8,full,2,35,training,35,0,6,1,1,1,0.024229
8,full,2,36,training,36,0,0,0,0,1,0.582970
8,full,2,37,training,37,5,5,0,0,1,0.052591
8,full,2,38,training,38,6,0,1,1,1,0.201306
8,full,2,39,training,39,1,5,1,1,1,0.168921
8,full,2,40,training,40,5,1,1,0,0,0.436084
8,full,2,41,training,41,5,1,1,1,1,1.459182
8,full,2,42,training,42,6,0,1,1,1,0.039215
8,full,2,43,training,43,0,0,0,0,1,0.535966
8,full,2,44,training,44,5,5,0,0,1,0.087552
8,full,2,45,training,45,6,6,0,0,1,0.023512
8,full,2,46,training,46,1,1,0,0,1,2.743007
8,full,2,47,training,47,0,6,1,1,1,0.397390
8,full,2,48,training,48,1,5,1,1,1,0.037796
8,full,2,49,training,49,6,6,0,0,1,0.000093
8,full,2,50,training,50,0,6,1,1,1,0.130899
8,full,2,51,training,51,6,0,1,1,1,0.000140
8,full,2,52,training,52,1,5,1,1,1,1.146004
8,full,2,53,training,53,0,0,0,0,1,1.900735
8,full,2,54,training,54,5,1,1,1,1,4.931025
8,full,2,55,training,55,5,5,0,0,1,0.050703
8,full,2,56,training,56,1,1,0,0,1,0.111846
8,full,2,57,training,57,5,1,1,1,1,0.917449
8,full,2,58,training,58,6,6,0,0,1,0.403822
8,full,2,59,training,59,0,6,1,1,1,0.555800
8,full,2,60,training,60,6,0,1,1,1,0.627699
8,full,2,61,training,61,1,1,0,0,1,2.003615
8,full,2,62,training,62,0,0,0,0,1,0.314070
8,full,2,63,training,63,5,5,0,0,1,0.225218
8,full,2,64,training,64,1,5,1,1,1,5.519466
8,full,2,65,training,65,1,1,0,0,1,0.979071
8,full,2,66,training,66,0,0,0,0,1,0.000090
8,full,2,67,training,67,5,1,1,1,1,0.449421
8,full,2,68,training,68,6,0,1,1,1,3.052096
8,full,2,69,training,69,0,6,1,1,1,0.337406
8,full,2,70,training,70,5,5,0,0,1,0.173311
8,full,2,71,training,71,1,5,1,1,1,1.233669
8,full,2,72,training,72,6,6,0,0,1,6.950193
8,full,2,73,training,73,6,0,1,1,1,0.095534
8,full,2,74,training,74,5,1,1,1,1,4.886200
8,full,2,75,training,75,5,5,0,0,1,0.370268
8,full,2,76,training,76,6,6,0,0,1,0.067432
8,full,2,77,training,77,1,1,0,0,1,0.942251
8,full,2,78,training,78,1,5,1,1,1,0.000150
8,full,2,79,training,79,0,6,1,1,1,0.995337
8,full,2,80,training,80,0,0,0,0,1,1.185663
8,full,2,81,training,81,1,5,1,1,1,0.214954
8,full,2,82,training,82,5,1,1,1,1,0.000141
8,full,2,83,training,83,0,6,1,1,1,0.517216
8,full,2,84,training,84,6,0,1,1,1,0.000144
8,full,2,85,training,85,6,6,0,0,1,0.223925
8,full,2,86,training,86,5,5,0,0,1,0.000100
8,full,2,87,training,87,1,1,0,0,1,0.071914
8,full,2,88,training,88,0,0,0,0,1,0.380255
8,full,2,89,training,89,5,5,0,0,1,0.116639
8,full,2,90,training,90,1,5,1,1,1,0.743794
8,full,2,91,training,91,6,6,0,0,1,0.000092
8,full,2,92,training,92,0,0,0,0,1,1.160481
8,full,2,93,training,93,6,0,1,1,1,0.000145
8,full,2,94,training,94,1,1,0,0,1,0.092510
8,full,2,95,training,95,0,6,1,1,1,1.556810
8,full,2,96,training,96,5,1,1,1,1,0.041246
8,full,2,97,generalization,1,2,0,0,NaN,NaN,1.611508
8,full,2,98,generalization,2,4,3,0,NaN,NaN,4.726897
8,full,2,99,generalization,3,4,5,1,NaN,NaN,0.265061
8,full,2,100,generalization,4,6,4,0,NaN,NaN,1.260571
8,full,2,101,generalization,5,0,3,1,NaN,NaN,4.159235
8,full,2,102,generalization,6,6,5,0,NaN,NaN,0.492512
8,full,2,103,generalization,7,3,3,1,NaN,NaN,4.807095
8,full,2,104,generalization,8,4,0,0,NaN,NaN,2.139492
8,full,2,105,generalization,9,1,3,1,NaN,NaN,2.128692
8,full,2,106,generalization,10,0,1,0,NaN,NaN,0.289940
8,full,2,107,generalization,11,6,1,1,NaN,NaN,0.134710
8,full,2,108,generalization,12,0,0,0,NaN,NaN,0.152733
8,full,2,109,generalization,13,0,5,1,NaN,NaN,0.166374
8,full,2,110,generalization,14,1,5,1,NaN,NaN,1.890978
8,full,2,111,generalization,15,5,4,0,NaN,NaN,0.028971
8,full,2,112,generalization,16,2,2,1,NaN,NaN,3.166422
8,full,2,113,generalization,17,0,4,1,NaN,NaN,0.376518
8,full,2,114,generalization,18,4,1,1,NaN,NaN,2.921205
8,full,2,115,generalization,19,1,0,0,NaN,NaN,0.730415
8,full,2,116,generalization,20,5,1,1,NaN,NaN,0.627963
8,full,2,117,generalization,21,6,3,0,NaN,NaN,0.166824
8,full,2,118,generalization,22,0,2,1,NaN,NaN,2.846297
8,full,2,119,generalization,23,6,6,0,NaN,NaN,0.050294
8,full,2,120,generalization,24,3,2,1,NaN,NaN,1.529121
8,full,2,121,generalization,25,3,5,1,NaN,NaN,0.576635
8,full,2,122,generalization,26,1,2,1,NaN,NaN,1.351396
8,full,2,123,generalization,27,2,5,1,NaN,NaN,0.000142
8,full,2,124,generalization,28,5,2,0,NaN,NaN,0.526964
8,full,2,125,generalization,29,4,4,0,NaN,NaN,2.086887
8,full,2,126,generalization,30,4,2,0,NaN,NaN,1.415290
8,full,2,127,generalization,31,1,6,1,NaN,NaN,0.065626
8,full,2,128,generalization,32,5,6,0,NaN,NaN,0.020487
8,full,2,129,generalization,33,4,6,0,NaN,NaN,1.878373
8,full,2,130,generalization,34,3,6,1,NaN,NaN,0.999577
8,full,2,131,generalization,35,2,1,1,NaN,NaN,0.595531
8,full,2,132,generalization,36,5,0,1,NaN,NaN,0.566257
8,full,2,133,generalization,37,6,0,1,NaN,NaN,0.000150
8,full,2,134,generalization,38,2,3,1,NaN,NaN,0.225492
8,full,2,135,generalization,39,5,5,0,NaN,NaN,0.000091
8,full,2,136,generalization,40,3,4,1,NaN,NaN,0.419839
8,full,2,137,generalization,41,0,6,1,NaN,NaN,0.000155
8,full,2,138,generalization,42,6,2,0,NaN,NaN,0.660942
8,full,2,139,generalization,43,1,4,1,NaN,NaN,3.252057
8,full,2,140,generalization,44,2,6,1,NaN,NaN,0.000147
8,full,2,141,generalization,45,3,0,0,NaN,NaN,0.467612
8,full,2,142,generalization,46,5,3,0,NaN,NaN,0.000093
8,full,2,143,generalization,47,2,4,1,NaN,NaN,2.850299
8,full,2,144,generalization,48,3,1,0,NaN,NaN,1.268345
8,full,2,145,generalization,49,1,1,0,NaN,NaN,4.132585
9,full,8,1,training,1,0,6,1,0,0,4.736255
9,full,8,2,training,2,0,0,0,0,1,1.623054
9,full,8,3,training,3,5,5,0,1,0,1.454549
9,full,8,4,training,4,5,1,1,1,1,0.917748
9,full,8,5,training,5,1,1,0,1,0,0.539347
9,full,8,6,training,6,6,0,1,0,0,0.026874
9,full,8,7,training,7,6,6,0,0,1,1.561141
9,full,8,8,training,8,1,5,1,1,1,1.909973
9,full,8,9,training,9,5,1,1,0,0,1.133156
9,full,8,10,training,10,0,6,1,0,0,0.863459
9,full,8,11,training,11,6,0,1,1,1,0.336382
9,full,8,12,training,12,1,5,1,1,1,0.804697
9,full,8,13,training,13,1,1,0,0,1,1.380585
9,full,8,14,training,14,6,6,0,1,0,2.059729
9,full,8,15,training,15,0,0,0,1,0,0.505613
9,full,8,16,training,16,5,5,0,1,0,6.650568
9,full,8,17,training,17,1,1,0,1,0,2.747851
9,full,8,18,training,18,5,1,1,1,1,0.589933
9,full,8,19,training,19,5,5,0,0,1,0.491527
9,full,8,20,training,20,1,5,1,1,1,2.056639
9,full,8,21,training,21,6,6,0,0,1,1.249786
9,full,8,22,training,22,6,0,1,1,1,0.399762
9,full,8,23,training,23,0,6,1,0,0,0.000095
9,full,8,24,training,24,0,0,0,0,1,0.322118
9,full,8,25,training,25,1,5,1,1,1,0.394510
9,full,8,26,training,26,0,0,0,0,1,3.344378
9,full,8,27,training,27,1,1,0,0,1,0.088035
9,full,8,28,training,28,6,6,0,0,1,1.655511
9,full,8,29,training,29,5,5,0,0,1,0.225534
9,full,8,30,training,30,0,6,1,1,1,0.423876
9,full,8,31,training,31,5,1,1,1,1,3.142584
9,full,8,32,training,32,6,0,1,1,1,1.519060
9,full,8,33,training,33,1,5,1,0,0,0.006636
9,full,8,34,training,34,1,1,0,0,1,0.000107
9,full,8,35,training,35,5,1,1,1,1,0.378964
9,full,8,36,training,36,0,0,0,0,1,1.492808
9,full,8,37,training,37,6,0,1,0,0,4.025534
9,full,8,38,training,38,6,6,0,1,0,0.337182
9,full,8,39,training,39,0,6,1,1,1,1.619547
9,full,8,40,training,40,5,5,0,0,1,6.416123
9,full,8,41,training,41,1,1,0,0,1,1.703412
9,full,8,42,training,42,6,0,1,1,1,2.090937
9,full,8,43,training,43,1,5,1,1,1,0.424178
9,full,8,44,training,44,5,1,1,1,1,2.102838
9,full,8,45,training,45,0,0,0,0,1,2.188859
9,full,8,46,training,46,6,6,0,0,1,2.020042
9,full,8,47,training,47,0,6,1,1,1,0.982041
9,full,8,48,training,48,5,5,0,0,1,0.952338
9,full,8,49,training,49,1,1,0,1,0,3.096310
9,full,8,50,training,50,5,5,0,0,1,2.549380
9,full,8,51,training,51,6,6,0,0,1,0.000091
9,full,8,52,training,52,5,1,1,1,1,0.190989
9,full,8,53,training,53,0,0,0,0,1,0.893786
9,full,8,54,training,54,0,6,1,1,1,1.861262
9,full,8,55,training,55,6,0,1,0,0,4.776386
9,full,8,56,training,56,1,5,1,1,1,0.295210
9,full,8,57,training,57,5,5,0,0,1,0.238777
9,full,8,58,training,58,5,1,1,1,1,1.949182
9,full,8,59,training,59,0,0,0,0,1,1.048255
9,full,8,60,training,60,1,5,1,1,1,1.019896
9,full,8,61,training,61,6,0,1,1,1,4.032890
9,full,8,62,training,62,1,1,0,0,1,0.426171
9,full,8,63,training,63,0,6,1,1,1,0.028951
9,full,8,64,training,64,6,6,0,1,0,1.741340
9,full,8,65,training,65,6,0,1,1,1,0.766448
9,full,8,66,training,66,0,6,1,1,1,0.642468
9,full,8,67,training,67,5,1,1,1,1,2.307158
9,full,8,68,training,68,5,5,0,1,0,0.903569
9,full,8,69,training,69,1,5,1,1,1,0.603979
9,full,8,70,training,70,1,1,0,0,1,0.563534
9,full,8,71,training,71,6,6,0,0,1,1.641864
9,full,8,72,training,72,0,0,0,0,1,0.821834
9,full,8,73,training,73,0,0,0,0,1,0.701809
9,full,8,74,training,74,0,6,1,1,1,0.176209
9,full,8,75,training,75,5,1,1,1,1,0.532159
9,full,8,76,training,76,6,0,1,1,1,0.212580
9,full,8,77,training,77,1,1,0,0,1,0.825655
9,full,8,78,training,78,1,5,1,1,1,0.094859
9,full,8,79,training,79,5,5,0,0,1,0.960788
9,full,8,80,training,80,6,6,0,0,1,0.366419
9,full,8,81,training,81,5,1,1,1,1,0.577583
9,full,8,82,training,82,5,5,0,0,1,0.001206
9,full,8,83,training,83,6,6,0,0,1,0.132345
9,full,8,84,training,84,0,6,1,1,1,0.650695
9,full,8,85,training,85,0,0,0,0,1,0.019493
9,full,8,86,training,86,1,5,1,1,1,0.635378
9,full,8,87,training,87,1,1,0,0,1,0.213879
9,full,8,88,training,88,6,0,1,1,1,0.929334
9,full,8,89,training,89,0,6,1,1,1,0.762903
9,full,8,90,training,90,1,1,0,0,1,1.121660
9,full,8,91,training,91,5,5,0,0,1,1.139252
9,full,8,92,training,92,6,6,0,0,1,0.288436
9,full,8,93,training,93,6,0,1,1,1,0.079638
9,full,8,94,training,94,0,0,0,0,1,0.307104
9,full,8,95,training,95,1,5,1,1,1,1.144733
9,full,8,96,training,96,5,1,1,1,1,0.566268
9,full,8,97,generalization,1,6,2,1,NaN,NaN,4.583714
9,full,8,98,generalization,2,6,1,1,NaN,NaN,0.164617
9,full,8,99,generalization,3,1,2,0,NaN,NaN,0.321315
9,full,8,100,generalization,4,2,0,0,NaN,NaN,0.118917
9,full,8,101,generalization,5,0,0,0,NaN,NaN,0.339222
9,full,8,102,generalization,6,2,3,0,NaN,NaN,1.063540
9,full,8,103,generalization,7,3,6,1,NaN,NaN,0.813574
9,full,8,104,generalization,8,5,2,1,NaN,NaN,7.556106
9,full,8,105,generalization,9,2,2,0,NaN,NaN,1.281406
9,full,8,106,generalization,10,3,2,0,NaN,NaN,0.555812
9,full,8,107,generalization,11,1,3,0,NaN,NaN,0.067078
9,full,8,108,generalization,12,6,6,0,NaN,NaN,2.258198
9,full,8,109,generalization,13,5,4,1,NaN,NaN,0.163319
9,full,8,110,generalization,14,4,1,0,NaN,NaN,2.984795
9,full,8,111,generalization,15,6,4,1,NaN,NaN,1.056875
9,full,8,112,generalization,16,1,6,1,NaN,NaN,0.664422
9,full,8,113,generalization,17,0,6,1,NaN,NaN,0.141194
9,full,8,114,generalization,18,4,2,0,NaN,NaN,0.524019
9,full,8,115,generalization,19,0,4,0,NaN,NaN,0.562776
9,full,8,116,generalization,20,1,5,1,NaN,NaN,0.713509
9,full,8,117,generalization,21,4,5,0,NaN,NaN,3.318615
9,full,8,118,generalization,22,2,4,1,NaN,NaN,7.471147
9,full,8,119,generalization,23,2,5,1,NaN,NaN,0.699357
9,full,8,120,generalization,24,4,3,1,NaN,NaN,0.416684
9,full,8,121,generalization,25,3,3,0,NaN,NaN,2.462729
9,full,8,122,generalization,26,5,5,1,NaN,NaN,0.522033
9,full,8,123,generalization,27,5,3,0,NaN,NaN,0.569277
9,full,8,124,generalization,28,4,4,1,NaN,NaN,1.003573
9,full,8,125,generalization,29,3,1,0,NaN,NaN,0.000103
9,full,8,126,generalization,30,1,0,0,NaN,NaN,0.000101
9,full,8,127,generalization,31,4,0,1,NaN,NaN,0.757542
9,full,8,128,generalization,32,0,2,0,NaN,NaN,1.491426
9,full,8,129,generalization,33,6,0,1,NaN,NaN,0.315865
9,full,8,130,generalization,34,2,1,0,NaN,NaN,0.000090
9,full,8,131,generalization,35,1,4,1,NaN,NaN,0.504618
9,full,8,132,generalization,36,2,6,1,NaN,NaN,1.323370
9,full,8,133,generalization,37,1,1,0,NaN,NaN,0.000101
9,full,8,134,generalization,38,0,1,0,NaN,NaN,0.000092
9,full,8,135,generalization,39,5,1,1,NaN,NaN,0.053327
9,full,8,136,generalization,40,3,0,1,NaN,NaN,0.918488
9,full,8,137,generalization,41,6,3,1,NaN,NaN,1.321664
9,full,8,138,generalization,42,3,5,0,NaN,NaN,1.007234
9,full,8,139,generalization,43,5,6,0,NaN,NaN,0.135195
9,full,8,140,generalization,44,3,4,1,NaN,NaN,0.317996
9,full,8,141,generalization,45,5,0,1,NaN,NaN,2.089988
9,full,8,142,generalization,46,4,6,0,NaN,NaN,3.202566
9,full,8,143,generalization,47,6,5,0,NaN,NaN,0.000090
9,full,8,144,generalization,48,0,5,1,NaN,NaN,0.791819
9,full,8,145,generalization,49,0,3,0,NaN,NaN,1.041001
10,full,6,1,training,1,1,5,1,0,0,5.650478
10,full,6,2,training,2,5,5,0,1,0,2.919570
10,full,6,3,training,3,5,1,1,1,1,4.698296
10,full,6,4,training,4,6,0,1,1,1,2.863484
10,full,6,5,training,5,1,1,0,0,1,2.474628
10,full,6,6,training,6,0,0,0,0,1,2.274274
10,full,6,7,training,7,0,6,1,1,1,2.045709
10,full,6,8,training,8,6,6,0,1,0,1.384219
10,full,6,9,training,9,1,1,0,0,1,1.736883
10,full,6,10,training,10,6,6,0,1,0,2.043551
10,full,6,11,training,11,5,5,0,1,0,2.144379
10,full,6,12,training,12,6,0,1,0,0,0.989514
10,full,6,13,training,13,0,0,0,1,0,6.063282
10,full,6,14,training,14,1,5,1,1,1,0.095832
10,full,6,15,training,15,5,1,1,0,0,2.794123
10,full,6,16,training,16,0,6,1,1,1,5.020382
10,full,6,17,training,17,6,0,1,0,0,0.946500
10,full,6,18,training,18,5,5,0,0,1,0.546855
10,full,6,19,training,19,5,1,1,1,1,1.923180
10,full,6,20,training,20,0,6,1,0,0,2.395933
10,full,6,21,training,21,6,6,0,0,1,0.788760
10,full,6,22,training,22,1,1,0,0,1,6.825295
10,full,6,23,training,23,1,5,1,0,0,2.497722
10,full,6,24,training,24,0,0,0,0,1,0.217026
10,full,6,25,training,25,1,5,1,1,1,2.278084
10,full,6,26,training,26,6,6,0,1,0,0.200164
10,full,6,27,training,27,6,0,1,1,1,3.215139
10,full,6,28,training,28,0,6,1,0,0,2.142263
10,full,6,29,training,29,5,1,1,0,0,3.033039
10,full,6,30,training,30,1,1,0,0,1,0.000107
10,full,6,31,training,31,0,0,0,0,1,0.233554
10,full,6,32,training,32,5,5,0,1,0,0.993834
10,full,6,33,training,33,5,1,1,1,1,0.000142
10,full,6,34,training,34,0,0,0,0,1,1.668139
10,full,6,35,training,35,6,0,1,0,0,3.400450
10,full,6,36,training,36,1,1,0,0,1,0.752121
10,full,6,37,training,37,0,6,1,1,1,0.747206
10,full,6,38,training,38,1,5,1,0,0,1.409520
10,full,6,39,training,39,5,5,0,1,0,0.246790
10,full,6,40,training,40,6,6,0,1,0,0.692396
10,full,6,41,training,41,5,5,0,0,1,0.573914
10,full,6,42,training,42,1,5,1,0,0,4.020637
10,full,6,43,training,43,0,6,1,0,0,1.035461
10,full,6,44,training,44,6,6,0,0,1,0.383737
10,full,6,45,training,45,5,1,1,0,0,1.306168
10,full,6,46,training,46,1,1,0,0,1,0.820082
10,full,6,47,training,47,0,0,0,0,1,0.102926
10,full,6,48,training,48,6,0,1,1,1,1.155207
10,full,6,49,training,49,5,5,0,1,0,1.397635
10,full,6,50,training,50,6,6,0,0,1,2.607502
10,full,6,51,training,51,6,0,1,1,1,3.700231
10,full,6,52,training,52,1,1,0,0,1,1.237463
10,full,6,53,training,53,1,5,1,1,1,2.716589
10,full,6,54,training,54,0,6,1,0,0,1.074953
10,full,6,55,training,55,5,1,1,0,0,3.110907
10,full,6,56,training,56,0,0,0,0,1,0.000101
10,full,6,57,training,57,0,6,1,1,1,0.310514
10,full,6,58,training,58,5,5,0,1,0,1.935257
10,full,6,59,training,59,6,6,0,0,1,0.201565
10,full,6,60,training,60,0,0,0,1,0,2.365056
10,full,6,61,training,61,5,1,1,1,1,2.897469
10,full,6,62,training,62,6,0,1,1,1,6.504888
10,full,6,63,training,63,1,5,1,1,1,4.560824
10,full,6,64,training,64,1,1,0,0,1,2.217227
10,full,6,65,training,65,6,0,1,1,1,1.769977
10,full,6,66,training,66,1,5,1,1,1,1.376058
10,full,6,67,training,67,6,6,0,0,1,1.762702
10,full,6,68,training,68,0,0,0,1,0,2.768683
10,full,6,69,training,69,1,1,0,1,0,0.888378
10,full,6,70,training,70,5,1,1,1,1,0.285438
10,full,6,71,training,71,0,6,1,0,0,0.531004
10,full,6,72,training,72,5,5,0,1,0,1.518177
10,full,6,73,training,73,5,1,1,1,1,0.108212
10,full,6,74,training,74,6,6,0,0,1,1.079689
10,full,6,75,training,75,1,1,0,0,1,1.067318
10,full,6,76,training,76,5,5,0,1,0,1.835629
10,full,6,77,training,77,0,6,1,1,1,1.660366
10,full,6,78,training,78,1,5,1,1,1,2.198307
10,full,6,79,training,79,0,0,0,0,1,1.947443
10,full,6,80,training,80,6,0,1,1,1,0.798659
10,full,6,81,training,81,1,5,1,1,1,0.463065
10,full,6,82,training,82,1,1,0,0,1,0.529308
10,full,6,83,training,83,6,6,0,0,1,2.784087
10,full,6,84,training,84,5,5,0,1,0,2.593235
10,full,6,85,training,85,0,0,0,0,1,1.732714
10,full,6,86,training,86,0,6,1,1,1,0.613600
10,full,6,87,training,87,6,0,1,1,1,5.595021
10,full,6,88,training,88,5,1,1,1,1,2.597415
10,full,6,89,training,89,0,6,1,1,1,1.391780
10,full,6,90,training,90,6,6,0,0,1,1.634871
10,full,6,91,training,91,5,5,0,0,1,2.094084
10,full,6,92,training,92,1,5,1,1,1,5.042271
10,full,6,93,training,93,5,1,1,1,1,2.990346
10,full,6,94,training,94,6,0,1,1,1,0.451683
10,full,6,95,training,95,0,0,0,0,1,0.246319
10,full,6,96,training,96,1,1,0,0,1,0.184413
10,full,6,97,generalization,1,1,3,1,NaN,NaN,3.096488
10,full,6,98,generalization,2,1,0,0,NaN,NaN,0.166172
10,full,6,99,generalization,3,2,1,0,NaN,NaN,1.599251
10,full,6,100,generalization,4,0,3,1,NaN,NaN,0.951293
10,full,6,101,generalization,5,5,3,0,NaN,NaN,2.637971
10,full,6,102,generalization,6,5,6,1,NaN,NaN,0.834799
10,full,6,103,generalization,7,1,4,1,NaN,NaN,0.000149
10,full,6,104,generalization,8,6,6,0,NaN,NaN,5.150529
10,full,6,105,generalization,9,4,3,0,NaN,NaN,3.846130
10,full,6,106,generalization,10,0,2,0,NaN,NaN,0.000096
10,full,6,107,generalization,11,6,1,1,NaN,NaN,0.552911
10,full,6,108,generalization,12,1,2,0,NaN,NaN,3.495607
10,full,6,109,generalization,13,0,1,0,NaN,NaN,0.000094
10,full,6,110,generalization,14,4,5,1,NaN,NaN,3.092782
10,full,6,111,generalization,15,5,0,1,NaN,NaN,4.508697
10,full,6,112,generalization,16,0,6,1,NaN,NaN,0.286825
10,full,6,113,generalization,17,6,4,0,NaN,NaN,1.472295
10,full,6,114,generalization,18,6,2,1,NaN,NaN,0.689875
10,full,6,115,generalization,19,2,6,1,NaN,NaN,2.525772
10,full,6,116,generalization,20,2,0,0,NaN,NaN,1.340124
10,full,6,117,generalization,21,1,6,1,NaN,NaN,1.196527
10,full,6,118,generalization,22,4,2,1,NaN,NaN,2.519716
10,full,6,119,generalization,23,1,1,0,NaN,NaN,0.198518
10,full,6,120,generalization,24,5,2,1,NaN,NaN,0.944850
10,full,6,121,generalization,25,4,0,1,NaN,NaN,1.262101
10,full,6,122,generalization,26,5,1,1,NaN,NaN,1.742755
10,full,6,123,generalization,27,3,0,0,NaN,NaN,1.256278
10,full,6,124,generalization,28,0,4,1,NaN,NaN,2.119039
10,full,6,125,generalization,29,1,5,1,NaN,NaN,0.000141
10,full,6,126,generalization,30,3,3,1,NaN,NaN,3.360143
10,full,6,127,generalization,31,6,3,1,NaN,NaN,5.686779
10,full,6,128,generalization,32,3,5,0,NaN,NaN,1.250540
10,full,6,129,generalization,33,5,4,1,NaN,NaN,8.226221
10,full,6,130,generalization,34,0,0,0,NaN,NaN,0.087188
10,full,6,131,generalization,35,0,5,1,NaN,NaN,2.524637
10,full,6,132,generalization,36,2,2,0,NaN,NaN,0.104342
10,full,6,133,generalization,37,6,5,0,NaN,NaN,1.523445
10,full,6,134,generalization,38,4,6,1,NaN,NaN,0.307118
10,full,6,135,generalization,39,4,4,0,NaN,NaN,2.575768
10,full,6,136,generalization,40,6,0,1,NaN,NaN,1.832965
10,full,6,137,generalization,41,5,5,1,NaN,NaN,2.146154
10,full,6,138,generalization,42,2,4,1,NaN,NaN,4.111592
10,full,6,139,generalization,43,2,3,0,NaN,NaN,10.062525
10,full,6,140,generalization,44,3,1,0,NaN,NaN,0.000090
10,full,6,141,generalization,45,2,5,1,NaN,NaN,0.410693
10,full,6,142,generalization,46,3,6,1,NaN,NaN,0.735573
10,full,6,143,generalization,47,3,2,0,NaN,NaN,0.040705
10,full,6,144,generalization,48,3,4,1,NaN,NaN,0.529863
10,full,6,145,generalization,49,4,1,1,NaN,NaN,3.870542
11,full,1,1,training,1,1,5,1,0,0,3.109695
11,full,1,2,training,2,5,5,0,0,1,0.334938
11,full,1,3,training,3,1,1,0,1,0,0.469655
11,full,1,4,training,4,6,0,1,1,1,1.669638
11,full,1,5,training,5,5,1,1,0,0,1.065570
11,full,1,6,training,6,6,6,0,0,1,0.674672
11,full,1,7,training,7,0,0,0,0,1,0.736780
11,full,1,8,training,8,0,6,1,1,1,0.467470
11,full,1,9,training,9,6,6,0,1,0,1.345372
11,full,1,10,training,10,5,1,1,1,1,1.076115
11,full,1,11,training,11,1,5,1,1,1,0.774959
11,full,1,12,training,12,5,5,0,0,1,1.696836
11,full,1,13,training,13,1,1,0,0,1,0.325211
11,full,1,14,training,14,0,0,0,1,0,0.116397
11,full,1,15,training,15,0,6,1,0,0,0.344764
11,full,1,16,training,16,6,0,1,0,0,0.669494
11,full,1,17,training,17,6,0,1,1,1,0.217468
11,full,1,18,training,18,1,1,0,0,1,0.647046
11,full,1,19,training,19,0,6,1,1,1,0.727380
11,full,1,20,training,20,5,1,1,0,0,2.965258
11,full,1,21,training,21,1,5,1,0,0,1.208817
11,full,1,22,training,22,5,5,0,0,1,0.407197
11,full,1,23,training,23,0,0,0,0,1,0.292396
11,full,1,24,training,24,6,6,0,1,0,0.669071
11,full,1,25,training,25,1,1,0,1,0,1.833029
11,full,1,26,training,26,5,5,0,0,1,1.381402
11,full,1,27,training,27,0,0,0,0,1,1.237701
11,full,1,28,training,28,1,5,1,1,1,1.288919
11,full,1,29,training,29,6,0,1,1,1,0.628867
11,full,1,30,training,30,5,1,1,0,0,1.664341
11,full,1,31,training,31,6,6,0,0,1,0.525999
11,full,1,32,training,32,0,6,1,1,1,0.236305
11,full,1,33,training,33,5,5,0,1,0,2.756653
11,full,1,34,training,34,1,5,1,1,1,0.046698
11,full,1,35,training,35,1,1,0,1,0,0.934943
11,full,1,36,training,36,0,6,1,1,1,2.795252
11,full,1,37,training,37,6,6,0,0,1,0.245318
11,full,1,38,training,38,0,0,0,0,1,0.730486
11,full,1,39,training,39,5,1,1,0,0,1.056782
11,full,1,40,training,40,6,0,1,0,0,0.396742
11,full,1,41,training,41,6,6,0,0,1,0.395136
11,full,1,42,training,42,6,0,1,1,1,0.340783
11,full,1,43,training,43,5,1,1,1,1,0.952350
11,full,1,44,training,44,0,0,0,0,1,0.085463
11,full,1,45,training,45,1,1,0,0,1,0.166688
11,full,1,46,training,46,0,6,1,1,1,0.234566
11,full,1,47,training,47,5,5,0,0,1,0.000092
11,full,1,48,training,48,1,5,1,1,1,0.000155
11,full,1,49,training,49,0,0,0,0,1,0.510073
11,full,1,50,training,50,6,6,0,0,1,0.485288
11,full,1,51,training,51,1,5,1,1,1,0.150913
11,full,1,52,training,52,0,6,1,1,1,0.213677
11,full,1,53,training,53,5,5,0,0,1,0.088823
11,full,1,54,training,54,1,1,0,0,1,0.380824
11,full,1,55,training,55,6,0,1,1,1,0.335548
11,full,1,56,training,56,5,1,1,1,1,0.000141
11,full,1,57,training,57,0,6,1,1,1,1.987825
11,full,1,58,training,58,6,0,1,0,0,0.054657
11,full,1,59,training,59,6,6,0,0,1,0.000091
11,full,1,60,training,60,1,1,0,0,1,1.392213
11,full,1,61,training,61,5,5,0,0,1,0.604534
11,full,1,62,training,62,5,1,1,1,1,0.654936
11,full,1,63,training,63,1,5,1,1,1,1.072104
11,full,1,64,training,64,0,0,0,0,1,0.199649
11,full,1,65,training,65,5,5,0,0,1,0.381284
11,full,1,66,training,66,6,6,0,0,1,0.000091
11,full,1,67,training,67,0,0,0,0,1,0.910807
11,full,1,68,training,68,0,6,1,1,1,0.167579
11,full,1,69,training,69,1,1,0,0,1,0.460737
11,full,1,70,training,70,5,1,1,1,1,0.363486
11,full,1,71,training,71,6,0,1,1,1,0.196682
11,full,1,72,training,72,1,5,1,1,1,1.124222
11,full,1,73,training,73,0,6,1,1,1,0.000140
11,full,1,74,training,74,6,6,0,0,1,0.000092
11,full,1,75,training,75,0,0,0,0,1,0.571753
11,full,1,76,training,76,5,5,0,0,1,0.274985
11,full,1,77,training,77,1,5,1,1,1,0.042490
11,full,1,78,training,78,6,0,1,1,1,0.851281
11,full,1,79,training,79,5,1,1,1,1,0.032871
11,full,1,80,training,80,1,1,0,0,1,0.000094
11,full,1,81,training,81,5,1,1,1,1,0.034080
11,full,1,82,training,82,5,5,0,0,1,0.644345
11,full,1,83,training,83,6,6,0,0,1,0.086803
11,full,1,84,training,84,0,0,0,0,1,0.485969
11,full,1,85,training,85,1,5,1,1,1,0.000141
11,full,1,86,training,86,1,1,0,0,1,0.148655
11,full,1,87,training,87,6,0,1,1,1,0.200306
11,full,1,88,training,88,0,6,1,1,1,0.726564
11,full,1,89,training,89,1,1,0,0,1,0.000093
11,full,1,90,training,90,1,5,1,1,1,2.160869
11,full,1,91,training,91,6,6,0,0,1,0.955293
11,full,1,92,training,92,0,0,0,0,1,0.091663
11,full,1,93,training,93,5,5,0,0,1,1.414004
11,full,1,94,training,94,0,6,1,1,1,0.043229
11,full,1,95,training,95,5,1,1,1,1,0.407620
11,full,1,96,training,96,6,0,1,1,1,0.193589
11,full,1,97,generalization,1,6,3,0,NaN,NaN,3.592143
11,full,1,98,generalization,2,2,5,1,NaN,NaN,0.520648
11,full,1,99,generalization,3,2,3,1,NaN,NaN,1.812507
11,full,1,100,generalization,4,4,6,0,NaN,NaN,0.649303
11,full,1,101,generalization,5,1,2,0,NaN,NaN,0.112883
11,full,1,102,generalization,6,2,6,1,NaN,NaN,0.087665
11,full,1,103,generalization,7,1,3,0,NaN,NaN,0.874784
11,full,1,104,generalization,8,5,5,0,NaN,NaN,0.699619
11,full,1,105,generalization,9,4,2,1,NaN,NaN,0.051564
11,full,1,106,generalization,10,4,4,0,NaN,NaN,4.014198
11,full,1,107,generalization,11,5,0,1,NaN,NaN,0.743430
11,full,1,108,generalization,12,6,2,1,NaN,NaN,1.557871
11,full,1,109,generalization,13,2,2,0,NaN,NaN,1.368943
11,full,1,110,generalization,14,1,0,0,NaN,NaN,0.735814
11,full,1,111,generalization,15,4,5,0,NaN,NaN,1.361726
11,full,1,112,generalization,16,0,2,0,NaN,NaN,1.500038
11,full,1,113,generalization,17,3,2,0,NaN,NaN,0.336549
11,full,1,114,generalization,18,0,5,1,NaN,NaN,0.000140
11,full,1,115,generalization,19,4,0,1,NaN,NaN,1.410392
11,full,1,116,generalization,20,2,1,1,NaN,NaN,0.081631
11,full,1,117,generalization,21,6,1,1,NaN,NaN,0.696905
11,full,1,118,generalization,22,3,1,1,NaN,NaN,0.791985
11,full,1,119,generalization,23,1,4,0,NaN,NaN,0.334299
11,full,1,120,generalization,24,6,0,1,NaN,NaN,0.368753
11,full,1,121,generalization,25,3,4,0,NaN,NaN,0.300260
11,full,1,122,generalization,26,1,6,1,NaN,NaN,0.358244
11,full,1,123,generalization,27,0,4,1,NaN,NaN,0.033096
11,full,1,124,generalization,28,6,5,0,NaN,NaN,0.107435
11,full,1,125,generalization,29,4,3,0,NaN,NaN,1.272991
11,full,1,126,generalization,30,0,6,1,NaN,NaN,0.199737
11,full,1,127,generalization,31,6,4,0,NaN,NaN,0.224049
11,full,1,128,generalization,32,5,2,1,NaN,NaN,0.000152
11,full,1,129,generalization,33,0,1,0,NaN,NaN,0.322443
11,full,1,130,generalization,34,6,6,0,NaN,NaN,1.506807
11,full,1,131,generalization,35,5,4,0,NaN,NaN,0.129655
11,full,1,132,generalization,36,2,4,0,NaN,NaN,1.305989
11,full,1,133,generalization,37,3,3,0,NaN,NaN,0.215167
11,full,1,134,generalization,38,2,0,0,NaN,NaN,0.407173
11,full,1,135,generalization,39,0,3,1,NaN,NaN,0.039153
11,full,1,136,generalization,40,4,1,0,NaN,NaN,0.481066
11,full,1,137,generalization,41,5,3,0,NaN,NaN,0.311499
11,full,1,138,generalization,42,5,6,0,NaN,NaN,0.464671
11,full,1,139,generalization,43,3,5,0,NaN,NaN,0.190908
11,full,1,140,generalization,44,5,1,1,NaN,NaN,0.862553
11,full,1,141,generalization,45,1,5,1,NaN,NaN,0.383002
11,full,1,142,generalization,46,1,1,0,NaN,NaN,0.418943
11,full,1,143,generalization,47,0,0,0,NaN,NaN,1.017293
11,full,1,144,generalization,48,3,6,1,NaN,NaN,3.664418
11,full,1,145,generalization,49,3,0,0,NaN,NaN,0.185286
12,full,2,1,training,1,6,6,0,1,0,7.320907
12,full,2,2,training,2,1,5,1,1,1,0.770670
12,full,2,3,training,3,6,0,1,0,0,1.775399
12,full,2,4,training,4,5,5,0,1,0,0.241006
12,full,2,5,training,5,1,1,0,1,0,0.536123
12,full,2,6,training,6,0,0,0,0,1,0.148151
12,full,2,7,training,7,5,1,1,0,0,0.022483
12,full,2,8,training,8,0,6,1,1,1,1.037624
12,full,2,9,training,9,6,6,0,1,0,1.872710
12,full,2,10,training,10,1,1,0,0,1,0.837961
12,full,2,11,training,11,5,5,0,1,0,4.382927
12,full,2,12,training,12,6,0,1,0,0,0.082633
12,full,2,13,training,13,5,1,1,1,1,5.237659
12,full,2,14,training,14,0,0,0,0,1,1.279302
12,full,2,15,training,15,0,6,1,1,1,2.706003
12,full,2,16,training,16,1,5,1,0,0,0.545190
12,full,2,17,training,17,1,1,0,1,0,0.098356
12,full,2,18,training,18,0,6,1,1,1,1.139915
12,full,2,19,training,19,6,6,0,0,1,1.409909
12,full,2,20,training,20,1,5,1,1,1,5.199331
12,full,2,21,training,21,5,1,1,0,0,3.171307
12,full,2,22,training,22,0,0,0,0,1,0.272968
12,full,2,23,training,23,6,0,1,1,1,0.026120
12,full,2,24,training,24,5,5,0,1,0,1.535252
12,full,2,25,training,25,5,5,0,0,1,0.097279
12,full,2,26,training,26,1,5,1,1,1,1.274743
12,full,2,27,training,27,1,1,0,0,1,1.357539
12,full,2,28,training,28,0,6,1,1,1,0.547147
12,full,2,29,training,29,0,0,0,1,0,0.643868
12,full,2,30,training,30,6,6,0,0,1,0.738269
12,full,2,31,training,31,6,0,1,1,1,1.396646
12,full,2,32,training,32,5,1,1,1,1,1.068568
12,full,2,33,training,33,1,5,1,0,0,1.561731
12,full,2,34,training,34,6,0,1,1,1,0.814088
12,full,2,35,training,35,6,6,0,0,1,1.605615
12,full,2,36,training,36,0,6,1,1,1,0.237601
12,full,2,37,training,37,1,1,0,1,0,1.043555
12,full,2,38,training,38,0,0,0,0,1,0.797532
12,full,2,39,training,39,5,1,1,1,1,12.458648
12,full,2,40,training,40,5,5,0,0,1,3.918069
12,full,2,41,training,41,0,0,0,1,0,2.386427
12,full,2,42,training,42,6,6,0,0,1,2.773618
12,full,2,43,training,43,6,0,1,1,1,0.868386
12,full,2,44,training,44,1,1,0,1,0,0.311194
12,full,2,45,training,45,5,5,0,1,0,0.725151
12,full,2,46,training,46,1,5,1,0,0,0.007096
12,full,2,47,training,47,0,6,1,1,1,0.232288
12,full,2,48,training,48,5,1,1,0,0,1.596594
12,full,2,49,training,49,5,5,0,1,0,0.476597
12,full,2,50,training,50,0,6,1,1,1,2.076101
12,full,2,51,training,51,0,0,0,0,1,2.788454
12,full,2,52,training,52,1,1,0,1,0,0.266434
12,full,2,53,training,53,6,6,0,1,0,4.716635
12,full,2,54,training,54,6,0,1,0,0,0.028726
12,full,2,55,training,55,5,1,1,1,1,0.106747
12,full,2,56,training,56,1,5,1,1,1,3.209011
12,full,2,57,training,57,5,5,0,0,1,0.500275
12,full,2,58,training,58,6,6,0,0,1,0.069011
12,full,2,59,training,59,1,5,1,1,1,0.578954
12,full,2,60,training,60,5,1,1,1,1,0.462533
12,full,2,61,training,61,1,1,0,0,1,1.769220
12,full,2,62,training,62,6,0,1,1,1,0.368447
12,full,2,63,training,63,0,0,0,0,1,2.145190
12,full,2,64,training,64,0,6,1,1,1,0.153997
12,full,2,65,training,65,0,6,1,1,1,0.000142
12,full,2,66,training,66,1,1,0,1,0,1.351863
12,full,2,67,training,67,5,5,0,1,0,0.663040
12,full,2,68,training,68,6,6,0,1,0,0.227494
12,full,2,69,training,69,6,0,1,0,0,0.509354
12,full,2,70,training,70,5,1,1,1,1,2.440547
12,full,2,71,training,71,1,5,1,1,1,1.953263
12,full,2,72,training,72,0,0,0,0,1,0.000098
12,full,2,73,training,73,1,1,0,1,0,0.438421
12,full,2,74,training,74,6,0,1,1,1,0.322780
12,full,2,75,training,75,6,6,0,0,1,2.035090
12,full,2,76,training,76,0,0,0,1,0,0.179981
12,full,2,77,training,77,1,5,1,0,0,0.561064
12,full,2,78,training,78,5,5,0,1,0,1.101453
12,full,2,79,training,79,0,6,1,0,0,1.134980
12,full,2,80,training,80,5,1,1,1,1,0.969710
12,full,2,81,training,81,0,6,1,1,1,0.793773
12,full,2,82,training,82,1,1,0,0,1,0.469759
12,full,2,83,training,83,6,0,1,1,1,0.000149
12,full,2,84,training,84,1,5,1,0,0,0.778043
12,full,2,85,training,85,6,6,0,0,1,0.210060
12,full,2,86,training,86,0,0,0,0,1,0.089604
12,full,2,87,training,87,5,5,0,1,0,0.636766
12,full,2,88,training,88,5,1,1,0,0,0.000094
12,full,2,89,training,89,1,5,1,1,1,0.580348
12,full,2,90,training,90,6,6,0,1,0,0.098291
12,full,2,91,training,91,0,0,0,1,0,0.709053
12,full,2,92,training,92,6,0,1,0,0,0.824636
12,full,2,93,training,93,1,1,0,1,0,1.059744
12,full,2,94,training,94,5,1,1,0,0,1.289749
12,full,2,95,training,95,5,5,0,1,0,1.535226
12,full,2,96,training,96,0,6,1,0,0,0.000097
12,full,2,97,generalization,1,0,4,1,NaN,NaN,3.660256
12,full,2,98,generalization,2,3,3,0,NaN,NaN,1.956648
12,full,2,99,generalization,3,6,1,0,NaN,NaN,4.000952
12,full,2,100,generalization,4,6,3,0,NaN,NaN,2.097771
12,full,2,101,generalization,5,5,2,1,NaN,NaN,0.000138
12,full,2,102,generalization,6,4,2,1,NaN,NaN,1.203315
12,full,2,103,generalization,7,4,1,1,NaN,NaN,0.949299
12,full,2,104,generalization,8,2,1,1,NaN,NaN,0.000141
12,full,2,105,generalization,9,3,6,0,NaN,NaN,0.010455
12,full,2,106,generalization,10,5,4,0,NaN,NaN,0.000095
12,full,2,107,generalization,11,5,1,1,NaN,NaN,0.666805
12,full,2,108,generalization,12,6,4,0,NaN,NaN,0.044760
12,full,2,109,generalization,13,5,3,1,NaN,NaN,0.980372
12,full,2,110,generalization,14,0,3,0,NaN,NaN,0.563488
12,full,2,111,generalization,15,0,2,0,NaN,NaN,0.299114
12,full,2,112,generalization,16,0,5,1,NaN,NaN,0.050295
12,full,2,113,generalization,17,1,4,1,NaN,NaN,0.331070
12,full,2,114,generalization,18,1,5,1,NaN,NaN,0.000140
12,full,2,115,generalization,19,6,2,0,NaN,NaN,0.079792
12,full,2,116,generalization,20,1,6,1,NaN,NaN,1.188956
12,full,2,117,generalization,21,1,2,1,NaN,NaN,0.474105
12,full,2,118,generalization,22,2,5,0,NaN,NaN,0.522915
12,full,2,119,generalization,23,0,1,1,NaN,NaN,2.336445
12,full,2,120,generalization,24,1,1,0,NaN,NaN,0.014819
12,full,2,121,generalization,25,4,3,0,NaN,NaN,0.347600
12,full,2,122,generalization,26,1,0,1,NaN,NaN,0.273205
12,full,2,123,generalization,27,4,5,0,NaN,NaN,0.690732
12,full,2,124,generalization,28,5,0,0,NaN,NaN,0.000094
12,full,2,125,generalization,29,6,6,1,NaN,NaN,0.469896
12,full,2,126,generalization,30,2,6,0,NaN,NaN,0.589104
12,full,2,127,generalization,31,3,2,1,NaN,NaN,0.639474
12,full,2,128,generalization,32,5,5,1,NaN,NaN,1.839763
12,full,2,129,generalization,33,3,4,0,NaN,NaN,0.045436
12,full,2,130,generalization,34,2,0,1,NaN,NaN,2.478487
12,full,2,131,generalization,35,0,6,0,NaN,NaN,0.441298
12,full,2,132,generalization,36,3,0,0,NaN,NaN,0.609686
12,full,2,133,generalization,37,3,5,1,NaN,NaN,0.024413
12,full,2,134,generalization,38,2,4,1,NaN,NaN,0.000144
12,full,2,135,generalization,39,3,1,1,NaN,NaN,1.798041
12,full,2,136,generalization,40,4,4,0,NaN,NaN,1.257536
12,full,2,137,generalization,41,6,5,1,NaN,NaN,0.000142
12,full,2,138,generalization,42,2,2,1,NaN,NaN,0.541507
12,full,2,139,generalization,43,4,6,0,NaN,NaN,0.401456
12,full,2,140,generalization,44,6,0,0,NaN,NaN,0.195455
12,full,2,141,generalization,45,5,6,1,NaN,NaN,1.572927
12,full,2,142,generalization,46,1,3,1,NaN,NaN,0.200969
12,full,2,143,generalization,47,2,3,1,NaN,NaN,0.553363
12,full,2,144,generalization,48,4,0,0,NaN,NaN,0.704492
12,full,2,145,generalization,49,0,0,1,NaN,NaN,3.573594
13,partial,3,1,training,1,0,0,0,0,1,5.155029
13,partial,3,2,training,2,0,6,1,1,1,0.149003
13,partial,3,3,training,3,0,6,1,1,1,0.080569
13,partial,3,4,training,4,6,6,0,1,0,1.164845
13,partial,3,5,training,5,1,1,0,0,1,3.030765
13,partial,3,6,training,6,5,5,0,0,1,0.578762
13,partial,3,7,training,7,1,5,1,1,1,2.607148
13,partial,3,8,training,8,1,5,1,1,1,2.024328
13,partial,3,9,training,9,1,5,1,1,1,0.119081
13,partial,3,10,training,10,6,6,0,0,1,0.000093
13,partial,3,11,training,11,1,5,1,1,1,0.000141
13,partial,3,12,training,12,0,6,1,0,0,0.134968
13,partial,3,13,training,13,1,1,0,0,1,1.122961
13,partial,3,14,training,14,5,5,0,1,0,1.870842
13,partial,3,15,training,15,0,6,1,1,1,0.534481
13,partial,3,16,training,16,0,0,0,0,1,3.334724
13,partial,3,17,training,17,1,5,1,0,0,0.000096
13,partial,3,18,training,18,0,0,0,0,1,0.402282
13,partial,3,19,training,19,5,5,0,1,0,1.168316
13,partial,3,20,training,20,0,6,1,1,1,0.224285
13,partial,3,21,training,21,6,6,0,0,1,0.861844
13,partial,3,22,training,22,1,5,1,1,1,0.311443
13,partial,3,23,training,23,1,1,0,0,1,0.410184
13,partial,3,24,training,24,0,6,1,1,1,0.120183
13,partial,3,25,training,25,0,6,1,1,1,1.763278
13,partial,3,26,training,26,5,5,0,0,1,0.673319
13,partial,3,27,training,27,0,0,0,0,1,0.691259
13,partial,3,28,training,28,1,5,1,1,1,0.578807
13,partial,3,29,training,29,1,5,1,1,1,0.579964
13,partial,3,30,training,30,0,6,1,0,0,0.277160
13,partial,3,31,training,31,1,1,0,0,1,0.240303
13,partial,3,32,training,32,6,6,0,0,1,2.438211
13,partial,3,33,training,33,1,5,1,1,1,1.519033
13,partial,3,34,training,34,5,5,0,0,1,0.912275
13,partial,3,35,training,35,1,1,0,0,1,1.487779
13,partial,3,36,training,36,6,6,0,0,1,0.300114
13,partial,3,37,training,37,0,0,0,0,1,1.241749
13,partial,3,38,training,38,0,6,1,1,1,0.051620
13,partial,3,39,training,39,0,6,1,1,1,1.084427
13,partial,3,40,training,40,1,5,1,1,1,0.012411
13,partial,3,41,training,41,1,5,1,1,1,1.319499
13,partial,3,42,training,42,5,5,0,0,1,2.161877
13,partial,3,43,training,43,1,5,1,1,1,3.963410
13,partial,3,44,training,44,6,6,0,0,1,0.000107
13,partial,3,45,training,45,0,0,0,0,1,0.158934
13,partial,3,46,training,46,0,6,1,1,1,0.000141
13,partial,3,47,training,47,0,6,1,1,1,0.967331
13,partial,3,48,training,48,1,1,0,0,1,0.101312
13,partial,3,49,training,49,1,1,0,0,1,0.311632
13,partial,3,50,training,50,0,6,1,1,1,0.222780
13,partial,3,51,training,51,0,0,0,0,1,0.072814
13,partial,3,52,training,52,6,6,0,0,1,0.389959
13,partial,3,53,training,53,1,5,1,1,1,2.257484
13,partial,3,54,training,54,5,5,0,0,1,0.000284
13,partial,3,55,training,55,1,5,1,1,1,2.168997
13,partial,3,56,training,56,0,6,1,1,1,0.358565
13,partial,3,57,training,57,0,6,1,1,1,1.928146
13,partial,3,58,training,58,1,1,0,0,1,0.035353
13,partial,3,59,training,59,6,6,0,0,1,1.080147
13,partial,3,60,training,60,0,0,0,0,1,1.339262
13,partial,3,61,training,61,1,5,1,1,1,0.029268
13,partial,3,62,training,62,5,5,0,0,1,2.182414
13,partial,3,63,training,63,1,5,1,1,1,0.179954
13,partial,3,64,training,64,0,6,1,1,1,1.413883
13,partial,3,65,training,65,1,5,1,1,1,0.149068
13,partial,3,66,training,66,6,6,0,0,1,1.732284
13,partial,3,67,training,67,1,1,0,0,1,0.138547
13,partial,3,68,training,68,1,5,1,1,1,0.548069
13,partial,3,69,training,69,0,0,0,0,1,0.000092
13,partial,3,70,training,70,0,6,1,1,1,0.290086
13,partial,3,71,training,71,0,6,1,1,1,1.169980
13,partial,3,72,training,72,5,5,0,0,1,0.165998
13,partial,3,73,training,73,0,6,1,1,1,0.703192
13,partial,3,74,training,74,5,5,0,0,1,0.160015
13,partial,3,75,training,75,1,5,1,1,1,1.058268
13,partial,3,76,training,76,1,1,0,0,1,0.716715
13,partial,3,77,training,77,0,0,0,0,1,2.288223
13,partial,3,78,training,78,6,6,0,0,1,0.658602
13,partial,3,79,training,79,1,5,1,1,1,1.763675
13,partial,3,80,training,80,0,6,1,1,1,0.164613
13,partial,3,81,training,81,5,5,0,0,1,1.551676
13,partial,3,82,training,82,0,6,1,1,1,0.750019
13,partial,3,83,training,83,0,0,0,0,1,1.403594
13,partial,3,84,training,84,1,5,1,1,1,2.285518
13,partial,3,85,training,85,1,5,1,1,1,0.630670
13,partial,3,86,training,86,1,1,0,0,1,1.480751
13,partial,3,87,training,87,0,6,1,1,1,0.000145
13,partial,3,88,training,88,6,6,0,0,1,1.402146
13,partial,3,89,training,89,6,6,0,0,1,0.525748
13,partial,3,90,training,90,1,5,1,1,1,0.000155
13,partial,3,91,training,91,1,5,1,1,1,0.238891
13,partial,3,92,training,92,0,6,1,1,1,0.200875
13,partial,3,93,training,93,5,5,0,0,1,0.000091
13,partial,3,94,training,94,0,0,0,0,1,0.019963
13,partial,3,95,training,95,0,6,1,1,1,0.437567
13,partial,3,96,training,96,1,1,0,0,1,0.872359
13,partial,3,97,generalization,1,3,1,0,NaN,NaN,2.431417
13,partial,3,98,generalization,2,6,5,0,NaN,NaN,0.000095
13,partial,3,99,generalization,3,3,2,0,NaN,NaN,6.720036
13,partial,3,100,generalization,4,1,4,1,NaN,NaN,0.665633
13,partial,3,101,generalization,5,0,2,0,NaN,NaN,1.731166
13,partial,3,102,generalization,6,0,1,0,NaN,NaN,0.000093
13,partial,3,103,generalization,7,5,6,0,NaN,NaN,0.002828
13,partial,3,104,generalization,8,4,4,0,NaN,NaN,0.724787
13,partial,3,105,generalization,9,2,4,1,NaN,NaN,4.731828
13,partial,3,106,generalization,10,2,3,1,NaN,NaN,0.793475
13,partial,3,107,generalization,11,3,4,1,NaN,NaN,5.072852
13,partial,3,108,generalization,12,6,1,1,NaN,NaN,0.473772
13,partial,3,109,generalization,13,2,2,0,NaN,NaN,0.554479
13,partial,3,110,generalization,14,0,6,1,NaN,NaN,0.000173
13,partial,3,111,generalization,15,0,0,0,NaN,NaN,0.000090
13,partial,3,112,generalization,16,4,2,1,NaN,NaN,0.703656
13,partial,3,113,generalization,17,5,0,1,NaN,NaN,0.166889
13,partial,3,114,generalization,18,4,5,0,NaN,NaN,0.338344
13,partial,3,115,generalization,19,1,5,1,NaN,NaN,0.000142
13,partial,3,116,generalization,20,5,4,0,NaN,NaN,0.342733
13,partial,3,117,generalization,21,6,3,0,NaN,NaN,0.403058
13,partial,3,118,generalization,22,2,1,0,NaN,NaN,1.136707
13,partial,3,119,generalization,23,0,5,1,NaN,NaN,5.783779
13,partial,3,120,generalization,24,1,0,0,NaN,NaN,0.298123
13,partial,3,121,generalization,25,4,1,1,NaN,NaN,0.172152
13,partial,3,122,generalization,26,3,0,0,NaN,NaN,2.572485
13,partial,3,123,generalization,27,3,5,1,NaN,NaN,0.118439
13,partial,3,124,generalization,28,3,3,1,NaN,NaN,0.000142
13,partial,3,125,generalization,29,1,2,0,NaN,NaN,0.377997
13,partial,3,126,generalization,30,2,0,0,NaN,NaN,0.615113
13,partial,3,127,generalization,31,4,0,1,NaN,NaN,0.177997
13,partial,3,128,generalization,32,4,6,0,NaN,NaN,0.186329
13,partial,3,129,generalization,33,5,1,1,NaN,NaN,0.819882
13,partial,3,130,generalization,34,1,6,1,NaN,NaN,0.713089
13,partial,3,131,generalization,35,0,3,1,NaN,NaN,0.244709
13,partial,3,132,generalization,36,3,6,1,NaN,NaN,0.739889
13,partial,3,133,generalization,37,6,0,1,NaN,NaN,0.641830
13,partial,3,134,generalization,38,4,3,0,NaN,NaN,0.270569
13,partial,3,135,generalization,39,6,6,0,NaN,NaN,0.271767
13,partial,3,136,generalization,40,1,1,0,NaN,NaN,0.350919
13,partial,3,137,generalization,41,5,5,1,NaN,NaN,0.402456
13,partial,3,138,generalization,42,2,6,1,NaN,NaN,0.154424
13,partial,3,139,generalization,43,1,3,1,NaN,NaN,0.625636
13,partial,3,140,generalization,44,6,4,0,NaN,NaN,0.601984
13,partial,3,141,generalization,45,6,2,0,NaN,NaN,2.185941
13,partial,3,142,generalization,46,5,3,0,NaN,NaN,0.017877
13,partial,3,143,generalization,47,5,2,0,NaN,NaN,1.438672
13,partial,3,144,generalization,48,0,4,1,NaN,NaN,0.215849
13,partial,3,145,generalization,49,2,5,1,NaN,NaN,0.265450
14,partial,5,1,training,1,0,6,1,0,0,3.652010
14,partial,5,2,training,2,1,1,0,1,0,2.274772
14,partial,5,3,training,3,1,5,1,1,1,0.870675
14,partial,5,4,training,4,0,0,0,0,1,0.437821
14,partial,5,5,training,5,0,6,1,1,1,0.593376
14,partial,5,6,training,6,6,6,0,1,0,0.611760
14,partial,5,7,training,7,1,5,1,1,1,0.228192
14,partial,5,8,training,8,5,5,0,0,1,0.294516
14,partial,5,9,training,9,0,6,1,1,1,0.666501
14,partial,5,10,training,10,1,5,1,1,1,0.200070
14,partial,5,11,training,11,1,1,0,0,1,0.746780
14,partial,5,12,training,12,5,5,0,0,1,0.320815
14,partial,5,13,training,13,0,0,0,0,1,0.724033
14,partial,5,14,training,14,1,5,1,1,1,0.703092
14,partial,5,15,training,15,0,6,1,1,1,0.097170
14,partial,5,16,training,16,6,6,0,0,1,0.333066
14,partial,5,17,training,17,0,0,0,0,1,0.000093
14,partial,5,18,training,18,1,1,0,0,1,0.402231
14,partial,5,19,training,19,6,6,0,0,1,0.030988
14,partial,5,20,training,20,0,6,1,1,1,2.130903
14,partial,5,21,training,21,0,6,1,1,1,0.117721
14,partial,5,22,training,22,5,5,0,0,1,0.105233
14,partial,5,23,training,23,1,5,1,1,1,0.904439
14,partial,5,24,training,24,1,5,1,1,1,0.062441
14,partial,5,25,training,25,0,6,1,1,1,0.000143
14,partial,5,26,training,26,1,1,0,0,1,0.206328
14,partial,5,27,training,27,1,5,1,1,1,0.438292
14,partial,5,28,training,28,0,0,0,0,1,0.399027
14,partial,5,29,training,29,6,6,0,0,1,0.000096
14,partial,5,30,training,30,0,6,1,1,1,0.000142
14,partial,5,31,training,31,1,5,1,1,1,0.000140
14,partial,5,32,training,32,5,5,0,0,1,2.852584
14,partial,5,33,training,33,1,5,1,1,1,0.443693
14,partial,5,34,training,34,0,6,1,1,1,0.056514
14,partial,5,35,training,35,6,6,0,0,1,0.000092
14,partial,5,36,training,36,1,5,1,1,1,0.036394
14,partial,5,37,training,37,0,6,1,1,1,0.000160
14,partial,5,38,training,38,0,0,0,0,1,0.000097
14,partial,5,39,training,39,1,1,0,0,1,0.447554
14,partial,5,40,training,40,5,5,0,0,1,1.149050
14,partial,5,41,training,41,1,5,1,1,1,1.155036
14,partial,5,42,training,42,1,5,1,1,1,0.000143
14,partial,5,43,training,43,5,5,0,0,1,1.474938
14,partial,5,44,training,44,0,6,1,1,1,0.000144
14,partial,5,45,training,45,0,0,0,0,1,0.056125
14,partial,5,46,training,46,6,6,0,0,1,0.067306
14,partial,5,47,training,47,1,1,0,0,1,0.926462
14,partial,5,48,training,48,0,6,1,1,1,0.344411
14,partial,5,49,training,49,1,5,1,1,1,0.000143
14,partial,5,50,training,50,6,6,0,0,1,0.588792
14,partial,5,51,training,51,1,1,0,0,1,1.244738
14,partial,5,52,training,52,0,6,1,1,1,0.029484
14,partial,5,53,training,53,0,0,0,0,1,0.000094
14,partial,5,54,training,54,1,5,1,1,1,0.153794
14,partial,5,55,training,55,0,6,1,1,1,0.828962
14,partial,5,56,training,56,5,5,0,0,1,0.190178
14,partial,5,57,training,57,0,0,0,0,1,0.000094
14,partial,5,58,training,58,6,6,0,0,1,0.000092
14,partial,5,59,training,59,5,5,0,0,1,0.000093
14,partial,5,60,training,60,0,6,1,1,1,0.077639
14,partial,5,61,training,61,1,5,1,1,1,0.520050
14,partial,5,62,training,62,0,6,1,1,1,1.162430
14,partial,5,63,training,63,1,1,0,0,1,0.060375
14,partial,5,64,training,64,1,5,1,1,1,0.125174
14,partial,5,65,training,65,0,0,0,0,1,0.056307
14,partial,5,66,training,66,1,5,1,1,1,0.033844
14,partial,5,67,training,67,5,5,0,0,1,0.177908
14,partial,5,68,training,68,1,1,0,0,1,0.654580
14,partial,5,69,training,69,0,6,1,1,1,0.000143
14,partial,5,70,training,70,1,5,1,1,1,2.389756
14,partial,5,71,training,71,6,6,0,0,1,0.000104
14,partial,5,72,training,72,0,6,1,1,1,0.054930
14,partial,5,73,training,73,6,6,0,0,1,0.349686
14,partial,5,74,training,74,0,0,0,0,1,0.000095
14,partial,5,75,training,75,1,5,1,1,1,0.037607
14,partial,5,76,training,76,0,6,1,1,1,1.605159
14,partial,5,77,training,77,1,5,1,1,1,0.212807
14,partial,5,78,training,78,5,5,0,0,1,1.119931
14,partial,5,79,training,79,0,6,1,1,1,0.182540
14,partial,5,80,training,80,1,1,0,0,1,0.275428
14,partial,5,81,training,81,6,6,0,0,1,0.357822
14,partial,5,82,training,82,1,5,1,1,1,0.163348
14,partial,5,83,training,83,1,5,1,1,1,0.406643
14,partial,5,84,training,84,5,5,0,0,1,0.000095
14,partial,5,85,training,85,0,6,1,1,1,0.051657
14,partial,5,86,training,86,1,1,0,0,1,0.587674
14,partial,5,87,training,87,0,0,0,0,1,0.219269
14,partial,5,88,training,88,0,6,1,1,1,0.000143
14,partial,5,89,training,89,0,6,1,1,1,0.552810
14,partial,5,90,training,90,6,6,0,0,1,0.000103
14,partial,5,91,training,91,0,0,0,0,1,0.295111
14,partial,5,92,training,92,5,5,0,0,1,0.154649
14,partial,5,93,training,93,0,6,1,1,1,0.021876
14,partial,5,94,training,94,1,5,1,1,1,0.243430
14,partial,5,95,training,95,1,1,0,0,1,0.052978
14,partial,5,96,training,96,1,5,1,1,1,0.068609
14,partial,5,97,generalization,1,4,1,1,NaN,NaN,3.649238
14,partial,5,98,generalization,2,2,1,0,NaN,NaN,0.603988
14,partial,5,99,generalization,3,2,0,0,NaN,NaN,0.000095
14,partial,5,100,generalization,4,2,4,1,NaN,NaN,0.000139
14,partial,5,101,generalization,5,5,3,0,NaN,NaN,0.323931
14,partial,5,102,generalization,6,5,6,0,NaN,NaN,0.228325
14,partial,5,103,generalization,7,3,4,1,NaN,NaN,0.673035
14,partial,5,104,generalization,8,6,0,1,NaN,NaN,1.047816
14,partial,5,105,generalization,9,3,2,1,NaN,NaN,2.528138
14,partial,5,106,generalization,10,5,2,0,NaN,NaN,0.478120
14,partial,5,107,generalization,11,4,3,0,NaN,NaN,9.274812
14,partial,5,108,generalization,12,4,2,0,NaN,NaN,0.948009
14,partial,5,109,generalization,13,2,5,1,NaN,NaN,0.067954
14,partial,5,110,generalization,14,1,5,1,NaN,NaN,0.620302
14,partial,5,111,generalization,15,0,2,1,NaN,NaN,0.512315
14,partial,5,112,generalization,16,0,3,1,NaN,NaN,0.035497
14,partial,5,113,generalization,17,4,6,0,NaN,NaN,0.815862
14,partial,5,114,generalization,18,0,4,1,NaN,NaN,0.564663
14,partial,5,115,generalization,19,6,6,0,NaN,NaN,0.000094
14,partial,5,116,generalization,20,1,6,1,NaN,NaN,0.000139
14,partial,5,117,generalization,21,6,3,0,NaN,NaN,0.895310
14,partial,5,118,generalization,22,4,0,0,NaN,NaN,13.660662
14,partial,5,119,generalization,23,1,3,1,NaN,NaN,0.038375
14,partial,5,120,generalization,24,4,5,1,NaN,NaN,0.747132
14,partial,5,121,generalization,25,5,0,1,NaN,NaN,4.320305
14,partial,5,122,generalization,26,5,4,0,NaN,NaN,0.331498
14,partial,5,123,generalization,27,6,1,1,NaN,NaN,0.607870
14,partial,5,124,generalization,28,3,0,0,NaN,NaN,1.755406
14,partial,5,125,generalization,29,2,3,1,NaN,NaN,0.000141
14,partial,5,126,generalization,30,6,5,0,NaN,NaN,0.000097
14,partial,5,127,generalization,31,1,0,0,NaN,NaN,0.970150
14,partial,5,128,generalization,32,0,6,1,NaN,NaN,0.124906
14,partial,5,129,generalization,33,0,0,0,NaN,NaN,0.000091
14,partial,5,130,generalization,34,4,4,1,NaN,NaN,1.859627
14,partial,5,131,generalization,35,0,1,0,NaN,NaN,1.045600
14,partial,5,132,generalization,36,2,6,1,NaN,NaN,0.417221
14,partial,5,133,generalization,37,1,2,1,NaN,NaN,0.391930
14,partial,5,134,generalization,38,0,5,1,NaN,NaN,0.163113
14,partial,5,135,generalization,39,5,5,0,NaN,NaN,0.200735
14,partial,5,136,generalization,40,1,4,1,NaN,NaN,0.263867
14,partial,5,137,generalization,41,6,2,0,NaN,NaN,1.279071
14,partial,5,138,generalization,42,3,6,1,NaN,NaN,0.193051
14,partial,5,139,generalization,43,3,1,0,NaN,NaN,0.175842
14,partial,5,140,generalization,44,3,3,1,NaN,NaN,0.684567
14,partial,5,141,generalization,45,3,5,1,NaN,NaN,0.000160
14,partial,5,142,generalization,46,1,1,0,NaN,NaN,0.200165
14,partial,5,143,generalization,47,6,4,0,NaN,NaN,0.000096
14,partial,5,144,generalization,48,2,2,1,NaN,NaN,0.918483
14,partial,5,145,generalization,49,5,1,1,NaN,NaN,0.856895
15,partial,8,1,training,1,0,6,1,1,1,4.118248
15,partial,8,2,training,2,1,5,1,1,1,0.466607
15,partial,8,3,training,3,0,0,0,0,1,0.198626
15,partial,8,4,training,4,6,6,0,1,0,0.061328
15,partial,8,5,training,5,5,5,0,1,0,3.508861
15,partial,8,6,training,6,0,6,1,1,1,0.000147
15,partial,8,7,training,7,1,5,1,1,1,2.674761
15,partial,8,8,training,8,1,1,0,0,1,0.011576
15,partial,8,9,training,9,1,1,0,0,1,0.024429
15,partial,8,10,training,10,0,0,0,0,1,0.363077
15,partial,8,11,training,11,1,5,1,1,1,1.316725
15,partial,8,12,training,12,6,6,0,0,1,0.479842
15,partial,8,13,training,13,5,5,0,0,1,0.739835
15,partial,8,14,training,14,1,5,1,1,1,0.151791
15,partial,8,15,training,15,0,6,1,1,1,0.872514
15,partial,8,16,training,16,0,6,1,1,1,2.176865
15,partial,8,17,training,17,1,1,0,0,1,2.296446
15,partial,8,18,training,18,0,6,1,1,1,0.000141
15,partial,8,19,training,19,1,5,1,1,1,0.732771
15,partial,8,20,training,20,1,5,1,1,1,0.089965
15,partial,8,21,training,21,6,6,0,0,1,0.189158
15,partial,8,22,training,22,5,5,0,0,1,2.374284
15,partial,8,23,training,23,0,0,0,0,1,0.111880
15,partial,8,24,training,24,0,6,1,1,1,0.039434
15,partial,8,25,training,25,1,5,1,1,1,0.116959
15,partial,8,26,training,26,6,6,0,0,1,0.000100
15,partial,8,27,training,27,1,1,0,0,1,1.992484
15,partial,8,28,training,28,5,5,0,0,1,0.233696
15,partial,8,29,training,29,0,6,1,1,1,2.340453
15,partial,8,30,training,30,0,6,1,1,1,0.000154
15,partial,8,31,training,31,1,5,1,1,1,0.190353
15,partial,8,32,training,32,0,0,0,0,1,0.317916
15,partial,8,33,training,33,0,6,1,1,1,0.555925
15,partial,8,34,training,34,1,5,1,1,1,0.298287
15,partial,8,35,training,35,0,6,1,1,1,0.545397
15,partial,8,36,training,36,6,6,0,0,1,0.276629
15,partial,8,37,training,37,5,5,0,0,1,0.150139
15,partial,8,38,training,38,0,0,0,0,1,1.028925
15,partial,8,39,training,39,1,1,0,0,1,1.575242
15,partial,8,40,training,40,1,5,1,1,1,0.296077
15,partial,8,41,training,41,0,6,1,1,1,2.279980
15,partial,8,42,training,42,0,0,0,0,1,0.594396
15,partial,8,43,training,43,1,5,1,1,1,0.330767
15,partial,8,44,training,44,0,6,1,1,1,1.749525
15,partial,8,45,training,45,1,1,0,0,1,0.079862
15,partial,8,46,training,46,5,5,0,0,1,1.056684
15,partial,8,47,training,47,1,5,1,1,1,0.023033
15,partial,8,48,training,48,6,6,0,0,1,0.314577
15,partial,8,49,training,49,1,5,1,1,1,0.782182
15,partial,8,50,training,50,6,6,0,0,1,0.042142
15,partial,8,51,training,51,0,6,1,1,1,0.458134
15,partial,8,52,training,52,1,1,0,0,1,0.188457
15,partial,8,53,training,53,0,6,1,1,1,1.240793
15,partial,8,54,training,54,0,0,0,0,1,1.869171
15,partial,8,55,training,55,5,5,0,0,1,0.000092
15,partial,8,56,training,56,1,5,1,1,1,0.114722
15,partial,8,57,training,57,6,6,0,0,1,0.057142
15,partial,8,58,training,58,0,6,1,1,1,1.417452
15,partial,8,59,training,59,1,5,1,1,1,0.037806
15,partial,8,60,training,60,5,5,0,0,1,0.014206
15,partial,8,61,training,61,1,1,0,0,1,1.698554
15,partial,8,62,training,62,1,5,1,1,1,1.662134
15,partial,8,63,training,63,0,0,0,0,1,1.070055
15,partial,8,64,training,64,0,6,1,1,1,1.322010
15,partial,8,65,training,65,1,1,0,0,1,1.501973
15,partial,8,66,training,66,0,6,1,1,1,0.595987
15,partial,8,67,training,67,0,0,0,0,1,0.000100
15,partial,8,68,training,68,1,5,1,1,1,0.000148
15,partial,8,69,training,69,6,6,0,0,1,0.662271
15,partial,8,70,training,70,0,6,1,1,1,0.246291
15,partial,8,71,training,71,5,5,0,0,1,0.000105
15,partial,8,72,training,72,1,5,1,1,1,1.273756
15,partial,8,73,training,73,0,0,0,0,1,1.633754
15,partial,8,74,training,74,1,5,1,1,1,2.180505
15,partial,8,75,training,75,1,5,1,1,1,0.235279
15,partial,8,76,training,76,1,1,0,0,1,0.672423
15,partial,8,77,training,77,6,6,0,0,1,1.065181
15,partial,8,78,training,78,0,6,1,1,1,0.012395
15,partial,8,79,training,79,0,6,1,1,1,2.053103
15,partial,8,80,training,80,5,5,0,0,1,0.178695
15,partial,8,81,training,81,0,6,1,1,1,1.941480
15,partial,8,82,training,82,1,5,1,1,1,1.406162
