subjectid,counterbalance,responsenumber,phase,trialnumber,F1,F2,response,correctresponse,accuracy,rt
1,5,1,training,1,10,5,0,0,1,3.892517
1,5,2,training,2,6,5,0,1,0,2.521896
1,5,3,training,3,5,6,1,1,1,0.815480
1,5,4,training,4,6,5,1,1,1,0.436033
1,5,5,training,5,11,6,0,0,1,0.797527
1,5,6,training,6,6,1,1,0,0,1.127021
1,5,7,training,7,5,6,1,1,1,0.746292
1,5,8,training,8,5,0,0,0,1,0.554524
1,5,9,training,9,10,5,0,0,1,0.554124
1,5,10,training,10,5,0,0,0,1,1.297663
1,5,11,training,11,11,6,0,0,1,0.881600
1,5,12,training,12,6,5,1,1,1,0.645855
1,5,13,training,13,6,1,0,0,1,1.030037
1,5,14,training,14,5,6,1,1,1,1.636865
1,5,15,training,15,6,5,1,1,1,0.788148
1,5,16,training,16,5,6,1,1,1,0.375054
1,5,17,training,17,11,6,0,0,1,0.611463
1,5,18,training,18,5,6,1,1,1,0.393723
1,5,19,training,19,6,1,0,0,1,0.584907
1,5,20,training,20,6,5,1,1,1,0.487184
1,5,21,training,21,10,5,0,0,1,0.386835
1,5,22,training,22,5,6,1,1,1,2.040591
1,5,23,training,23,5,0,0,0,1,0.798526
1,5,24,training,24,6,5,1,1,1,0.658123
1,5,25,training,25,6,1,0,0,1,0.978400
1,5,26,training,26,10,5,0,0,1,1.974040
1,5,27,training,27,6,5,1,1,1,0.507240
1,5,28,training,28,6,5,1,1,1,1.089044
1,5,29,training,29,5,0,0,0,1,0.853888
1,5,30,training,30,5,6,1,1,1,0.874202
1,5,31,training,31,5,6,1,1,1,1.881708
1,5,32,training,32,11,6,0,0,1,0.323767
1,5,33,training,33,5,6,1,1,1,1.913191
1,5,34,training,34,6,1,0,0,1,1.704383
1,5,35,training,35,5,6,1,1,1,5.370974
1,5,36,training,36,10,5,0,0,1,0.467898
1,5,37,training,37,11,6,0,0,1,0.444380
1,5,38,training,38,6,5,1,1,1,1.540173
1,5,39,training,39,6,5,1,1,1,0.494933
1,5,40,training,40,5,0,0,0,1,1.062747
1,5,41,training,41,6,5,1,1,1,0.350270
1,5,42,training,42,5,6,1,1,1,0.337979
1,5,43,training,43,11,6,0,0,1,0.446630
1,5,44,training,44,6,5,1,1,1,1.130353
1,5,45,training,45,5,0,0,0,1,0.351244
1,5,46,training,46,6,1,0,0,1,0.346305
1,5,47,training,47,5,6,1,1,1,0.555851
1,5,48,training,48,10,5,0,0,1,0.476283
1,5,49,training,49,6,5,1,1,1,1.522502
1,5,50,training,50,6,1,0,0,1,0.705520
1,5,51,training,51,5,0,0,0,1,0.948822
1,5,52,training,52,5,6,1,1,1,1.249715
1,5,53,training,53,11,6,0,0,1,2.274451
1,5,54,training,54,5,6,1,1,1,1.247041
1,5,55,training,55,10,5,0,0,1,1.217188
1,5,56,training,56,6,5,1,1,1,0.440017
1,5,57,training,57,5,0,0,0,1,0.880290
1,5,58,training,58,6,1,0,0,1,0.360564
1,5,59,training,59,5,6,1,1,1,0.623673
1,5,60,training,60,5,6,1,1,1,0.304182
1,5,61,training,61,6,5,1,1,1,0.583297
1,5,62,training,62,11,6,0,0,1,0.770959
1,5,63,training,63,10,5,0,0,1,2.445232
1,5,64,training,64,6,5,1,1,1,1.348177
1,5,65,training,65,5,0,0,0,1,0.511501
1,5,66,training,66,6,1,0,0,1,0.670605
1,5,67,training,67,10,5,0,0,1,6.471450
1,5,68,training,68,5,6,1,1,1,0.340197
1,5,69,training,69,6,5,1,1,1,1.282084
1,5,70,training,70,5,6,1,1,1,0.247596
1,5,71,training,71,6,5,1,1,1,1.275306
1,5,72,training,72,11,6,0,0,1,0.969151
1,5,73,training,73,11,6,0,0,1,1.468075
1,5,74,training,74,5,6,1,1,1,1.281281
1,5,75,training,75,6,1,0,0,1,1.132774
1,5,76,training,76,6,5,1,1,1,1.908542
1,5,77,training,77,5,6,1,1,1,0.473099
1,5,78,training,78,5,0,0,0,1,0.379586
1,5,79,training,79,10,5,0,0,1,0.551943
1,5,80,training,80,6,5,1,1,1,0.498146
1,5,81,training,81,11,6,0,0,1,0.705127
1,5,82,training,82,5,6,1,1,1,0.474553
1,5,83,training,83,5,6,1,1,1,0.275878
1,5,84,training,84,6,5,1,1,1,0.298049
1,5,85,training,85,5,0,0,0,1,0.472487
1,5,86,training,86,6,5,1,1,1,0.923490
1,5,87,training,87,6,1,0,0,1,0.801892
1,5,88,training,88,10,5,0,0,1,1.164770
1,5,89,training,89,6,5,1,1,1,3.820903
1,5,90,training,90,6,5,1,1,1,0.271771
1,5,91,training,91,11,6,0,0,1,0.408787
1,5,92,training,92,5,6,1,1,1,0.433780
1,5,93,training,93,10,5,0,0,1,0.453583
1,5,94,training,94,6,1,0,0,1,0.325247
1,5,95,training,95,5,0,0,0,1,0.295577
1,5,96,training,96,5,6,1,1,1,0.418692
1,5,97,generalization,1,10,10,0,NaN,NaN,4.738574
1,5,98,generalization,2,0,10,1,NaN,NaN,0.852031
1,5,99,generalization,3,9,1,0,NaN,NaN,0.506599
1,5,100,generalization,4,1,0,0,NaN,NaN,0.311262
1,5,101,generalization,5,1,2,0,NaN,NaN,2.708007
1,5,102,generalization,6,10,2,0,NaN,NaN,0.879433
1,5,103,generalization,7,11,0,0,NaN,NaN,0.476546
1,5,104,generalization,8,11,11,0,NaN,NaN,2.914546
1,5,105,generalization,9,0,2,0,NaN,NaN,1.670541
1,5,106,generalization,10,9,11,1,NaN,NaN,2.300152
1,5,107,generalization,11,11,9,0,NaN,NaN,0.536331
1,5,108,generalization,12,9,9,1,NaN,NaN,0.331741
1,5,109,generalization,13,2,0,0,NaN,NaN,0.286963
1,5,110,generalization,14,1,10,1,NaN,NaN,1.828390
1,5,111,generalization,15,1,9,1,NaN,NaN,0.540253
1,5,112,generalization,16,0,11,1,NaN,NaN,0.327419
1,5,113,generalization,17,2,10,1,NaN,NaN,0.395514
1,5,114,generalization,18,10,11,0,NaN,NaN,0.740843
1,5,115,generalization,19,1,1,0,NaN,NaN,0.296183
1,5,116,generalization,20,11,2,0,NaN,NaN,0.749619
1,5,117,generalization,21,9,10,1,NaN,NaN,1.312113
1,5,118,generalization,22,0,0,0,NaN,NaN,2.060586
1,5,119,generalization,23,10,0,0,NaN,NaN,0.450128
1,5,120,generalization,24,2,9,1,NaN,NaN,0.456872
1,5,121,generalization,25,1,11,1,NaN,NaN,0.456460
1,5,122,generalization,26,0,1,0,NaN,NaN,0.966239
1,5,123,generalization,27,9,2,0,NaN,NaN,0.576078
1,5,124,generalization,28,9,0,0,NaN,NaN,0.314188
1,5,125,generalization,29,11,10,0,NaN,NaN,0.590135
1,5,126,generalization,30,2,11,1,NaN,NaN,0.310865
1,5,127,generalization,31,10,5,0,NaN,NaN,6.675338
1,5,128,generalization,32,10,1,0,NaN,NaN,0.335657
1,5,129,generalization,33,6,5,1,NaN,NaN,0.426979
1,5,130,generalization,34,10,9,0,NaN,NaN,0.283022
1,5,131,generalization,35,11,6,0,NaN,NaN,0.296484
1,5,132,generalization,36,6,1,0,NaN,NaN,1.157896
1,5,133,generalization,37,2,1,0,NaN,NaN,1.351707
1,5,134,generalization,38,0,9,1,NaN,NaN,0.618132
1,5,135,generalization,39,11,1,0,NaN,NaN,0.458117
1,5,136,generalization,40,5,6,1,NaN,NaN,0.872812
1,5,137,generalization,41,2,2,0,NaN,NaN,0.438770
1,5,138,generalization,42,5,0,0,NaN,NaN,1.311021
2,2,1,training,1,6,5,1,1,1,3.186924
2,2,2,training,2,5,0,0,0,1,2.659151
2,2,3,training,3,5,6,1,1,1,1.445262
2,2,4,training,4,10,5,1,0,0,0.596262
2,2,5,training,5,5,6,1,1,1,0.576024
2,2,6,training,6,11,6,0,0,1,0.758600
2,2,7,training,7,6,5,1,1,1,0.903348
2,2,8,training,8,6,1,0,0,1,0.716059
2,2,9,training,9,6,5,1,1,1,0.510061
2,2,10,training,10,6,5,1,1,1,0.471639
2,2,11,training,11,6,1,0,0,1,1.377092
2,2,12,training,12,5,6,1,1,1,0.559787
2,2,13,training,13,5,6,1,1,1,0.342966
2,2,14,training,14,5,0,0,0,1,0.496006
2,2,15,training,15,10,5,0,0,1,1.402231
2,2,16,training,16,11,6,0,0,1,0.388978
2,2,17,training,17,5,0,0,0,1,0.287278
2,2,18,training,18,6,5,1,1,1,1.550997
2,2,19,training,19,6,5,1,1,1,0.332470
2,2,20,training,20,6,1,0,0,1,0.656744
2,2,21,training,21,5,6,1,1,1,1.188310
2,2,22,training,22,11,6,0,0,1,0.511842
2,2,23,training,23,10,5,0,0,1,1.954179
2,2,24,training,24,5,6,1,1,1,0.599356
2,2,25,training,25,5,0,0,0,1,0.521049
2,2,26,training,26,10,5,0,0,1,0.551937
2,2,27,training,27,6,5,1,1,1,0.987489
2,2,28,training,28,6,1,0,0,1,0.414210
2,2,29,training,29,5,6,1,1,1,0.475408
2,2,30,training,30,11,6,0,0,1,1.847510
2,2,31,training,31,6,5,1,1,1,2.542033
2,2,32,training,32,5,6,1,1,1,0.662536
2,2,33,training,33,5,6,1,1,1,0.871410
2,2,34,training,34,6,5,1,1,1,0.544344
2,2,35,training,35,5,0,0,0,1,0.455288
2,2,36,training,36,5,6,1,1,1,0.769557
2,2,37,training,37,11,6,0,0,1,0.757089
2,2,38,training,38,6,5,1,1,1,1.009026
2,2,39,training,39,6,1,0,0,1,0.960509
2,2,40,training,40,10,5,0,0,1,0.345399
2,2,41,training,41,6,5,1,1,1,0.353072
2,2,42,training,42,5,6,1,1,1,2.337489
2,2,43,training,43,10,5,0,0,1,0.554345
2,2,44,training,44,6,1,0,0,1,0.462802
2,2,45,training,45,6,5,1,1,1,0.415322
2,2,46,training,46,5,6,1,1,1,0.449739
2,2,47,training,47,5,0,0,0,1,0.345429
2,2,48,training,48,11,6,0,0,1,0.311902
2,2,49,training,49,5,6,1,1,1,0.405554
2,2,50,training,50,5,6,1,1,1,0.246080
2,2,51,training,51,6,5,1,1,1,0.694450
2,2,52,training,52,5,0,0,0,1,0.569245
2,2,53,training,53,10,5,0,0,1,0.873551
2,2,54,training,54,11,6,0,0,1,0.390940
2,2,55,training,55,6,5,1,1,1,0.711892
2,2,56,training,56,6,1,0,0,1,0.731350
2,2,57,training,57,5,6,1,1,1,2.448953
2,2,58,training,58,11,6,0,0,1,1.953303
2,2,59,training,59,6,1,0,0,1,0.532614
2,2,60,training,60,6,5,1,1,1,2.377486
2,2,61,training,61,5,0,0,0,1,1.859119
2,2,62,training,62,6,5,1,1,1,1.349641
2,2,63,training,63,10,5,0,0,1,1.135609
2,2,64,training,64,5,6,1,1,1,1.895675
2,2,65,training,65,6,5,1,1,1,0.607552
2,2,66,training,66,5,0,0,0,1,0.572974
2,2,67,training,67,11,6,0,0,1,0.299965
2,2,68,training,68,5,6,1,1,1,0.359069
2,2,69,training,69,6,1,0,0,1,0.407388
2,2,70,training,70,10,5,0,0,1,1.129672
2,2,71,training,71,6,5,1,1,1,2.176404
2,2,72,training,72,5,6,1,1,1,0.673620
2,2,73,training,73,6,5,1,1,1,1.853793
2,2,74,training,74,5,0,0,0,1,0.696265
2,2,75,training,75,5,6,1,1,1,0.554532
2,2,76,training,76,11,6,0,0,1,0.598742
2,2,77,training,77,6,5,1,1,1,1.189198
2,2,78,training,78,10,5,0,0,1,0.524676
2,2,79,training,79,5,6,1,1,1,0.552270
2,2,80,training,80,6,1,0,0,1,0.374586
2,2,81,training,81,5,6,1,1,1,0.562241
2,2,82,training,82,11,6,0,0,1,1.678483
2,2,83,training,83,5,6,1,1,1,1.456047
2,2,84,training,84,10,5,0,0,1,1.669789
2,2,85,training,85,6,5,1,1,1,2.368368
2,2,86,training,86,5,0,0,0,1,0.382828
2,2,87,training,87,6,5,1,1,1,0.845257
2,2,88,training,88,6,1,0,0,1,0.697966
2,2,89,training,89,10,5,0,0,1,1.448798
2,2,90,training,90,6,5,1,1,1,0.330072
2,2,91,training,91,6,5,1,1,1,4.410634
2,2,92,training,92,6,1,0,0,1,0.625699
2,2,93,training,93,5,6,1,1,1,1.351327
2,2,94,training,94,5,0,0,0,1,0.526628
2,2,95,training,95,11,6,0,0,1,0.383580
2,2,96,training,96,5,6,1,1,1,0.448610
2,2,97,generalization,1,0,1,0,NaN,NaN,2.538705
2,2,98,generalization,2,6,5,1,NaN,NaN,1.629476
2,2,99,generalization,3,1,11,1,NaN,NaN,4.996994
2,2,100,generalization,4,2,1,0,NaN,NaN,1.181016
2,2,101,generalization,5,11,1,0,NaN,NaN,1.486930
2,2,102,generalization,6,6,1,1,NaN,NaN,5.747869
2,2,103,generalization,7,9,10,1,NaN,NaN,1.181634
2,2,104,generalization,8,5,0,0,NaN,NaN,2.199554
2,2,105,generalization,9,11,6,0,NaN,NaN,2.383535
2,2,106,generalization,10,10,9,1,NaN,NaN,1.528309
2,2,107,generalization,11,10,5,0,NaN,NaN,3.460006
2,2,108,generalization,12,11,11,1,NaN,NaN,1.025100
2,2,109,generalization,13,0,11,1,NaN,NaN,1.232944
2,2,110,generalization,14,0,2,0,NaN,NaN,0.680086
2,2,111,generalization,15,11,2,0,NaN,NaN,0.382160
2,2,112,generalization,16,9,11,1,NaN,NaN,0.767458
2,2,113,generalization,17,9,0,0,NaN,NaN,0.824687
2,2,114,generalization,18,0,0,0,NaN,NaN,0.255978
2,2,115,generalization,19,9,2,0,NaN,NaN,1.254718
2,2,116,generalization,20,11,10,1,NaN,NaN,3.124419
2,2,117,generalization,21,9,1,0,NaN,NaN,5.391601
2,2,118,generalization,22,10,0,0,NaN,NaN,5.526794
2,2,119,generalization,23,1,1,0,NaN,NaN,0.305322
2,2,120,generalization,24,2,9,1,NaN,NaN,0.325452
2,2,121,generalization,25,2,11,1,NaN,NaN,0.304863
2,2,122,generalization,26,10,10,1,NaN,NaN,0.253557
2,2,123,generalization,27,10,2,0,NaN,NaN,0.708333
2,2,124,generalization,28,2,2,0,NaN,NaN,0.304920
2,2,125,generalization,29,9,9,1,NaN,NaN,0.525627
2,2,126,generalization,30,10,1,0,NaN,NaN,1.233728
2,2,127,generalization,31,0,9,1,NaN,NaN,0.360828
2,2,128,generalization,32,0,10,1,NaN,NaN,0.211612
2,2,129,generalization,33,11,9,1,NaN,NaN,0.252359
2,2,130,generalization,34,10,11,1,NaN,NaN,0.234458
2,2,131,generalization,35,5,6,1,NaN,NaN,1.561845
2,2,132,generalization,36,1,2,0,NaN,NaN,0.996132
2,2,133,generalization,37,1,10,1,NaN,NaN,0.525417
2,2,134,generalization,38,11,0,0,NaN,NaN,0.745317
2,2,135,generalization,39,1,0,0,NaN,NaN,0.316085
2,2,136,generalization,40,1,9,1,NaN,NaN,0.608989
2,2,137,generalization,41,2,10,1,NaN,NaN,0.289487
2,2,138,generalization,42,2,0,0,NaN,NaN,0.718863
3,3,1,training,1,6,5,0,1,0,2.132242
3,3,2,training,2,5,6,1,1,1,1.956089
3,3,3,training,3,11,6,0,0,1,1.488580
3,3,4,training,4,5,6,1,1,1,0.884246
3,3,5,training,5,10,5,0,0,1,0.475030
3,3,6,training,6,5,0,1,0,0,1.867405
3,3,7,training,7,6,1,0,0,1,1.523192
3,3,8,training,8,6,5,1,1,1,1.075134
3,3,9,training,9,5,6,1,1,1,1.036412
3,3,10,training,10,5,0,0,0,1,0.684490
3,3,11,training,11,6,1,0,0,1,2.467454
3,3,12,training,12,6,5,1,1,1,1.008370
3,3,13,training,13,6,5,1,1,1,0.415023
3,3,14,training,14,5,6,1,1,1,0.317133
3,3,15,training,15,10,5,0,0,1,0.630260
3,3,16,training,16,11,6,0,0,1,0.577840
3,3,17,training,17,6,1,0,0,1,0.752069
3,3,18,training,18,6,5,1,1,1,0.899160
3,3,19,training,19,5,6,1,1,1,0.554734
3,3,20,training,20,11,6,0,0,1,0.599772
3,3,21,training,21,5,0,0,0,1,0.422096
3,3,22,training,22,5,6,1,1,1,0.349119
3,3,23,training,23,6,5,1,1,1,0.292909
3,3,24,training,24,10,5,0,0,1,0.371855
3,3,25,training,25,10,5,0,0,1,0.583634
3,3,26,training,26,6,5,1,1,1,0.463359
3,3,27,training,27,5,6,1,1,1,0.480420
3,3,28,training,28,5,6,1,1,1,0.242980
3,3,29,training,29,11,6,0,0,1,0.713937
3,3,30,training,30,5,0,0,0,1,0.215709
3,3,31,training,31,6,1,0,0,1,0.717893
3,3,32,training,32,6,5,1,1,1,0.586179
3,3,33,training,33,5,6,1,1,1,0.266514
3,3,34,training,34,5,6,1,1,1,0.234425
3,3,35,training,35,5,0,0,0,1,0.508084
3,3,36,training,36,6,1,0,0,1,0.290532
3,3,37,training,37,11,6,0,0,1,0.214975
3,3,38,training,38,10,5,0,0,1,0.196776
3,3,39,training,39,6,5,1,1,1,0.819802
3,3,40,training,40,6,5,1,1,1,0.204839
3,3,41,training,41,6,1,0,0,1,0.389812
3,3,42,training,42,10,5,0,0,1,0.281626
3,3,43,training,43,5,0,0,0,1,0.220881
3,3,44,training,44,5,6,1,1,1,0.453923
3,3,45,training,45,5,6,1,1,1,0.230946
3,3,46,training,46,6,5,1,1,1,0.220016
3,3,47,training,47,11,6,0,0,1,0.409140
3,3,48,training,48,6,5,1,1,1,0.338966
3,3,49,training,49,6,5,1,1,1,0.254796
3,3,50,training,50,11,6,0,0,1,0.567033
3,3,51,training,51,5,0,0,0,1,0.576653
3,3,52,training,52,5,6,1,1,1,0.362409
3,3,53,training,53,6,1,0,0,1,0.628868
3,3,54,training,54,10,5,0,0,1,0.229220
3,3,55,training,55,6,5,1,1,1,0.311025
3,3,56,training,56,5,6,1,1,1,0.220862
3,3,57,training,57,5,6,1,1,1,0.207394
3,3,58,training,58,6,5,1,1,1,0.057283
3,3,59,training,59,11,6,0,0,1,0.608463
3,3,60,training,60,6,1,0,0,1,0.224856
3,3,61,training,61,5,0,0,0,1,0.153998
3,3,62,training,62,5,6,1,1,1,0.319148
3,3,63,training,63,10,5,0,0,1,0.347003
3,3,64,training,64,6,5,1,1,1,0.344849
3,3,65,training,65,5,6,1,1,1,0.238061
3,3,66,training,66,6,1,0,0,1,0.319914
3,3,67,training,67,5,0,0,0,1,0.027091
3,3,68,training,68,6,5,1,1,1,0.522984
3,3,69,training,69,11,6,0,0,1,1.030738
3,3,70,training,70,5,6,1,1,1,0.340769
3,3,71,training,71,6,5,1,1,1,0.239310
3,3,72,training,72,10,5,0,0,1,0.360411
3,3,73,training,73,5,6,1,1,1,0.540923
3,3,74,training,74,6,1,0,0,1,0.450969
3,3,75,training,75,5,6,1,1,1,0.271048
3,3,76,training,76,5,0,0,0,1,0.311602
3,3,77,training,77,11,6,0,0,1,0.323272
3,3,78,training,78,6,5,1,1,1,0.320434
3,3,79,training,79,10,5,0,0,1,0.589562
3,3,80,training,80,6,5,1,1,1,0.328083
3,3,81,training,81,11,6,0,0,1,0.373131
3,3,82,training,82,5,6,1,1,1,0.631545
3,3,83,training,83,5,6,1,1,1,0.320613
3,3,84,training,84,10,5,0,0,1,0.538937
3,3,85,training,85,6,5,1,1,1,0.567271
3,3,86,training,86,5,0,0,0,1,0.400310
3,3,87,training,87,6,1,0,0,1,0.411490
3,3,88,training,88,6,5,1,1,1,0.459850
3,3,89,training,89,5,0,0,0,1,0.352772
3,3,90,training,90,5,6,1,1,1,0.593154
3,3,91,training,91,5,6,1,1,1,0.301655
3,3,92,training,92,6,5,1,1,1,0.824102
3,3,93,training,93,11,6,0,0,1,0.889122
3,3,94,training,94,6,5,1,1,1,0.318774
3,3,95,training,95,10,5,0,0,1,0.587822
3,3,96,training,96,6,1,0,0,1,0.208242
3,3,97,generalization,1,11,6,0,NaN,NaN,0.613684
3,3,98,generalization,2,0,9,1,NaN,NaN,2.021613
3,3,99,generalization,3,2,9,0,NaN,NaN,2.909169
3,3,100,generalization,4,11,9,0,NaN,NaN,1.113059
3,3,101,generalization,5,11,2,1,NaN,NaN,1.093517
3,3,102,generalization,6,9,9,1,NaN,NaN,2.994789
3,3,103,generalization,7,1,10,0,NaN,NaN,0.963354
3,3,104,generalization,8,0,2,0,NaN,NaN,0.861827
3,3,105,generalization,9,1,1,0,NaN,NaN,0.972514
3,3,106,generalization,10,10,9,1,NaN,NaN,2.334429
3,3,107,generalization,11,6,5,1,NaN,NaN,1.681970
3,3,108,generalization,12,10,2,0,NaN,NaN,1.014771
3,3,109,generalization,13,10,5,0,NaN,NaN,0.503292
3,3,110,generalization,14,10,10,1,NaN,NaN,1.443903
3,3,111,generalization,15,0,1,1,NaN,NaN,2.243051
3,3,112,generalization,16,11,10,1,NaN,NaN,1.761804
3,3,113,generalization,17,9,1,1,NaN,NaN,1.196121
3,3,114,generalization,18,10,1,1,NaN,NaN,0.509320
3,3,115,generalization,19,6,1,0,NaN,NaN,0.810016
3,3,116,generalization,20,10,0,1,NaN,NaN,1.042514
3,3,117,generalization,21,9,11,0,NaN,NaN,1.409667
3,3,118,generalization,22,2,11,1,NaN,NaN,0.770109
3,3,119,generalization,23,2,10,1,NaN,NaN,0.451421
3,3,120,generalization,24,2,0,0,NaN,NaN,0.810014
3,3,121,generalization,25,1,2,1,NaN,NaN,2.066738
3,3,122,generalization,26,5,0,0,NaN,NaN,4.040177
3,3,123,generalization,27,0,0,1,NaN,NaN,0.654471
3,3,124,generalization,28,0,11,0,NaN,NaN,0.845001
3,3,125,generalization,29,1,11,0,NaN,NaN,1.012330
3,3,126,generalization,30,9,2,1,NaN,NaN,0.964865
3,3,127,generalization,31,2,2,0,NaN,NaN,0.759409
3,3,128,generalization,32,9,0,0,NaN,NaN,1.498785
3,3,129,generalization,33,0,10,1,NaN,NaN,0.575003
3,3,130,generalization,34,11,0,1,NaN,NaN,1.481053
3,3,131,generalization,35,10,11,1,NaN,NaN,0.902687
3,3,132,generalization,36,1,0,0,NaN,NaN,2.947221
3,3,133,generalization,37,11,1,1,NaN,NaN,1.389802
3,3,134,generalization,38,2,1,1,NaN,NaN,4.518921
3,3,135,generalization,39,1,9,1,NaN,NaN,4.529598
3,3,136,generalization,40,5,6,1,NaN,NaN,3.404412
3,3,137,generalization,41,11,11,0,NaN,NaN,0.940314
3,3,138,generalization,42,9,10,0,NaN,NaN,0.847509
4,3,1,training,1,10,5,0,0,1,2.329660
4,3,2,training,2,5,6,0,1,0,1.605450
4,3,3,training,3,11,6,0,0,1,1.799066
4,3,4,training,4,5,6,1,1,1,0.876507
4,3,5,training,5,6,5,1,1,1,0.733569
4,3,6,training,6,5,0,1,0,0,2.336439
4,3,7,training,7,6,1,0,0,1,0.552731
4,3,8,training,8,6,5,1,1,1,1.106308
4,3,9,training,9,5,0,0,0,1,0.431924
4,3,10,training,10,6,5,1,1,1,1.847710
4,3,11,training,11,6,1,0,0,1,1.906159
4,3,12,training,12,5,6,1,1,1,0.584157
4,3,13,training,13,6,5,1,1,1,2.255004
4,3,14,training,14,11,6,0,0,1,0.376836
4,3,15,training,15,10,5,0,0,1,0.269346
4,3,16,training,16,5,6,1,1,1,0.284567
4,3,17,training,17,6,5,1,1,1,0.372857
4,3,18,training,18,11,6,0,0,1,0.258587
4,3,19,training,19,5,6,1,1,1,0.391710
4,3,20,training,20,6,1,0,0,1,0.784110
4,3,21,training,21,6,5,1,1,1,0.431644
4,3,22,training,22,10,5,0,0,1,0.289490
4,3,23,training,23,5,6,1,1,1,0.370493
4,3,24,training,24,5,0,0,0,1,0.590939
4,3,25,training,25,6,5,1,1,1,0.474726
4,3,26,training,26,5,0,0,0,1,0.482516
4,3,27,training,27,5,6,1,1,1,0.274229
4,3,28,training,28,6,1,0,0,1,0.234111
4,3,29,training,29,11,6,0,0,1,0.434603
4,3,30,training,30,10,5,0,0,1,0.228371
4,3,31,training,31,6,5,1,1,1,0.701612
4,3,32,training,32,5,6,1,1,1,0.211977
4,3,33,training,33,10,5,0,0,1,0.497611
4,3,34,training,34,6,5,1,1,1,0.429175
4,3,35,training,35,6,5,1,1,1,0.507555
4,3,36,training,36,5,6,1,1,1,0.208011
4,3,37,training,37,6,1,0,0,1,0.617716
4,3,38,training,38,11,6,0,0,1,0.825959
4,3,39,training,39,5,6,1,1,1,0.269971
4,3,40,training,40,5,0,0,0,1,0.862351
4,3,41,training,41,6,5,1,1,1,0.468446
4,3,42,training,42,5,6,1,1,1,0.288124
4,3,43,training,43,5,6,1,1,1,0.612607
4,3,44,training,44,10,5,0,0,1,0.282221
4,3,45,training,45,6,1,0,0,1,1.343422
4,3,46,training,46,6,5,1,1,1,0.374712
4,3,47,training,47,5,0,0,0,1,0.610387
4,3,48,training,48,11,6,0,0,1,0.417191
4,3,49,training,49,6,5,1,1,1,3.547972
4,3,50,training,50,5,6,1,1,1,0.982020
4,3,51,training,51,10,5,0,0,1,0.448489
4,3,52,training,52,5,0,0,0,1,1.726154
4,3,53,training,53,11,6,0,0,1,0.332884
4,3,54,training,54,5,6,1,1,1,0.203810
4,3,55,training,55,6,5,1,1,1,0.289678
4,3,56,training,56,6,1,0,0,1,0.392668
4,3,57,training,57,11,6,0,0,1,0.261786
4,3,58,training,58,10,5,0,0,1,0.934257
4,3,59,training,59,6,5,1,1,1,0.543128
4,3,60,training,60,5,6,1,1,1,0.435585
4,3,61,training,61,5,0,0,0,1,1.081948
4,3,62,training,62,5,6,1,1,1,0.329883
4,3,63,training,63,6,1,0,0,1,0.312755
4,3,64,training,64,6,5,1,1,1,0.872418
4,3,65,training,65,5,6,1,1,1,0.484624
4,3,66,training,66,6,5,1,1,1,1.023690
4,3,67,training,67,6,1,0,0,1,1.053941
4,3,68,training,68,5,6,1,1,1,2.426842
4,3,69,training,69,5,0,0,0,1,1.360173
4,3,70,training,70,10,5,0,0,1,0.924312
4,3,71,training,71,11,6,0,0,1,2.648226
4,3,72,training,72,6,5,1,1,1,1.499604
4,3,73,training,73,6,5,1,1,1,0.333171
4,3,74,training,74,5,6,1,1,1,0.311045
4,3,75,training,75,5,0,0,0,1,0.972563
4,3,76,training,76,6,5,1,1,1,0.462824
4,3,77,training,77,10,5,0,0,1,0.283019
4,3,78,training,78,5,6,1,1,1,0.337513
4,3,79,training,79,6,1,0,0,1,1.976099
4,3,80,training,80,11,6,0,0,1,0.395999
4,3,81,training,81,10,5,0,0,1,0.266313
4,3,82,training,82,6,5,1,1,1,0.836726
4,3,83,training,83,5,6,1,1,1,0.267020
4,3,84,training,84,6,5,1,1,1,0.338066
4,3,85,training,85,5,6,1,1,1,0.223843
4,3,86,training,86,6,1,0,0,1,0.799593
4,3,87,training,87,5,0,0,0,1,0.483250
4,3,88,training,88,11,6,0,0,1,0.409502
4,3,89,training,89,5,0,0,0,1,1.603806
4,3,90,training,90,6,5,1,1,1,1.602441
4,3,91,training,91,10,5,0,0,1,0.409902
4,3,92,training,92,5,6,1,1,1,0.384295
4,3,93,training,93,11,6,0,0,1,0.669987
4,3,94,training,94,6,5,1,1,1,0.661601
4,3,95,training,95,5,6,1,1,1,1.076641
4,3,96,training,96,6,1,0,0,1,1.587057
4,3,97,generalization,1,2,11,1,NaN,NaN,4.292022
4,3,98,generalization,2,11,6,0,NaN,NaN,0.759660
4,3,99,generalization,3,0,11,1,NaN,NaN,0.362228
4,3,100,generalization,4,0,9,1,NaN,NaN,0.436995
4,3,101,generalization,5,9,1,0,NaN,NaN,0.964613
4,3,102,generalization,6,0,2,0,NaN,NaN,0.390839
4,3,103,generalization,7,11,9,0,NaN,NaN,4.200220
4,3,104,generalization,8,0,10,1,NaN,NaN,0.415133
4,3,105,generalization,9,2,0,0,NaN,NaN,0.831162
4,3,106,generalization,10,9,2,0,NaN,NaN,0.246456
4,3,107,generalization,11,1,2,0,NaN,NaN,0.269855
4,3,108,generalization,12,5,0,0,NaN,NaN,0.235250
4,3,109,generalization,13,1,1,0,NaN,NaN,0.378668
4,3,110,generalization,14,9,11,0,NaN,NaN,0.900686
4,3,111,generalization,15,10,0,0,NaN,NaN,0.225374
4,3,112,generalization,16,6,1,0,NaN,NaN,0.232793
4,3,113,generalization,17,1,11,1,NaN,NaN,0.344230
4,3,114,generalization,18,11,10,0,NaN,NaN,0.699536
4,3,115,generalization,19,6,5,1,NaN,NaN,1.144133
4,3,116,generalization,20,2,9,1,NaN,NaN,0.899416
4,3,117,generalization,21,1,9,1,NaN,NaN,0.231268
4,3,118,generalization,22,5,6,1,NaN,NaN,2.919378
4,3,119,generalization,23,9,9,0,NaN,NaN,1.521963
4,3,120,generalization,24,11,1,0,NaN,NaN,0.261746
4,3,121,generalization,25,2,1,0,NaN,NaN,0.252448
4,3,122,generalization,26,10,9,0,NaN,NaN,0.795246
4,3,123,generalization,27,1,0,1,NaN,NaN,0.436395
4,3,124,generalization,28,10,1,0,NaN,NaN,0.387786
4,3,125,generalization,29,10,10,0,NaN,NaN,1.253156
4,3,126,generalization,30,11,11,0,NaN,NaN,0.195712
4,3,127,generalization,31,10,11,0,NaN,NaN,0.237168
4,3,128,generalization,32,11,0,0,NaN,NaN,0.308604
4,3,129,generalization,33,2,10,1,NaN,NaN,2.145260
4,3,130,generalization,34,0,1,1,NaN,NaN,0.660142
4,3,131,generalization,35,10,2,0,NaN,NaN,0.546045
4,3,132,generalization,36,11,2,0,NaN,NaN,0.525393
4,3,133,generalization,37,9,10,0,NaN,NaN,1.337449
4,3,134,generalization,38,0,0,1,NaN,NaN,0.644549
4,3,135,generalization,39,1,10,1,NaN,NaN,0.267906
4,3,136,generalization,40,2,2,0,NaN,NaN,0.993952
4,3,137,generalization,41,10,5,0,NaN,NaN,0.427111
4,3,138,generalization,42,9,0,0,NaN,NaN,2.083100
5,3,1,training,1,11,6,0,0,1,2.174735
5,3,2,training,2,5,0,1,0,0,2.377839
5,3,3,training,3,10,5,0,0,1,1.060548
5,3,4,training,4,6,5,0,1,0,0.589335
5,3,5,training,5,6,1,0,0,1,0.969778
5,3,6,training,6,6,5,1,1,1,0.822565
5,3,7,training,7,5,6,0,1,0,1.386272
5,3,8,training,8,5,6,1,1,1,0.706951
5,3,9,training,9,5,0,0,0,1,0.576576
5,3,10,training,10,5,6,1,1,1,0.484868
5,3,11,training,11,6,5,1,1,1,0.665434
5,3,12,training,12,6,1,0,0,1,0.394378
5,3,13,training,13,10,5,1,0,0,2.101386
5,3,14,training,14,5,6,1,1,1,0.525846
5,3,15,training,15,11,6,0,0,1,0.474823
5,3,16,training,16,6,5,1,1,1,0.517922
5,3,17,training,17,6,1,0,0,1,0.527532
5,3,18,training,18,6,5,1,1,1,0.346557
5,3,19,training,19,5,6,1,1,1,0.229784
5,3,20,training,20,11,6,0,0,1,0.368234
5,3,21,training,21,5,0,0,0,1,0.367728
5,3,22,training,22,5,6,1,1,1,0.435567
5,3,23,training,23,10,5,0,0,1,0.356122
5,3,24,training,24,6,5,1,1,1,0.465608
5,3,25,training,25,5,6,1,1,1,0.206786
5,3,26,training,26,6,5,1,1,1,0.241253
5,3,27,training,27,10,5,0,0,1,0.464941
5,3,28,training,28,5,6,1,1,1,0.294749
5,3,29,training,29,5,0,0,0,1,0.262588
5,3,30,training,30,6,1,0,0,1,0.478774
5,3,31,training,31,6,5,1,1,1,0.359389
5,3,32,training,32,11,6,0,0,1,0.397677
5,3,33,training,33,5,0,0,0,1,0.664763
5,3,34,training,34,10,5,0,0,1,0.588287
5,3,35,training,35,6,1,0,0,1,0.327388
5,3,36,training,36,11,6,0,0,1,0.305068
5,3,37,training,37,5,6,1,1,1,0.295372
5,3,38,training,38,5,6,1,1,1,0.395911
5,3,39,training,39,6,5,1,1,1,0.374248
5,3,40,training,40,6,5,1,1,1,0.329266
5,3,41,training,41,10,5,0,0,1,0.439712
5,3,42,training,42,5,0,0,0,1,0.335527
5,3,43,training,43,6,5,1,1,1,0.466522
5,3,44,training,44,6,5,1,1,1,0.505633
5,3,45,training,45,11,6,0,0,1,0.342700
5,3,46,training,46,5,6,1,1,1,0.464388
5,3,47,training,47,5,6,1,1,1,0.384131
5,3,48,training,48,6,1,0,0,1,0.681863
5,3,49,training,49,6,5,1,1,1,0.363468
5,3,50,training,50,5,6,1,1,1,0.323931
5,3,51,training,51,5,6,1,1,1,0.392341
5,3,52,training,52,6,1,0,0,1,0.370038
5,3,53,training,53,11,6,0,0,1,0.221141
5,3,54,training,54,6,5,1,1,1,0.543578
5,3,55,training,55,10,5,0,0,1,0.778661
5,3,56,training,56,5,0,0,0,1,0.354778
5,3,57,training,57,5,0,0,0,1,0.265931
5,3,58,training,58,10,5,0,0,1,0.874959
5,3,59,training,59,6,5,1,1,1,0.244679
5,3,60,training,60,11,6,0,0,1,0.382627
5,3,61,training,61,6,5,1,1,1,1.447630
5,3,62,training,62,5,6,1,1,1,0.256458
5,3,63,training,63,6,1,0,0,1,0.342907
5,3,64,training,64,5,6,1,1,1,0.315879
5,3,65,training,65,6,5,1,1,1,0.239723
5,3,66,training,66,6,5,1,1,1,0.228872
5,3,67,training,67,5,0,0,0,1,0.333949
5,3,68,training,68,5,6,1,1,1,0.584950
5,3,69,training,69,5,6,1,1,1,0.102065
5,3,70,training,70,10,5,0,0,1,0.345825
5,3,71,training,71,6,1,0,0,1,0.373588
5,3,72,training,72,11,6,0,0,1,0.631971
5,3,73,training,73,5,6,1,1,1,1.058199
5,3,74,training,74,6,1,0,0,1,0.337133
5,3,75,training,75,5,0,0,0,1,0.245555
5,3,76,training,76,6,5,1,1,1,0.364823
5,3,77,training,77,6,5,1,1,1,0.331062
5,3,78,training,78,5,6,1,1,1,0.254902
5,3,79,training,79,10,5,0,0,1,0.487334
5,3,80,training,80,11,6,0,0,1,0.291667
5,3,81,training,81,10,5,0,0,1,0.544849
5,3,82,training,82,6,1,0,0,1,0.801083
5,3,83,training,83,6,5,1,1,1,0.369376
5,3,84,training,84,5,0,0,0,1,0.299741
5,3,85,training,85,5,6,1,1,1,0.631554
5,3,86,training,86,6,5,1,1,1,0.756608
5,3,87,training,87,5,6,1,1,1,0.311365
5,3,88,training,88,11,6,0,0,1,0.643225
5,3,89,training,89,10,5,0,0,1,0.674158
5,3,90,training,90,6,5,1,1,1,0.465176
5,3,91,training,91,5,6,1,1,1,0.201499
5,3,92,training,92,11,6,0,0,1,0.297974
5,3,93,training,93,6,1,0,0,1,0.721752
5,3,94,training,94,5,6,1,1,1,0.324435
5,3,95,training,95,6,5,1,1,1,0.468818
5,3,96,training,96,5,0,0,0,1,0.389059
5,3,97,generalization,1,5,6,1,NaN,NaN,0.811141
5,3,98,generalization,2,2,9,1,NaN,NaN,4.083656
5,3,99,generalization,3,10,5,0,NaN,NaN,0.559271
5,3,100,generalization,4,2,2,0,NaN,NaN,0.369996
5,3,101,generalization,5,0,1,0,NaN,NaN,4.059947
5,3,102,generalization,6,1,1,0,NaN,NaN,1.400925
5,3,103,generalization,7,11,9,0,NaN,NaN,0.801313
5,3,104,generalization,8,10,2,0,NaN,NaN,4.225236
5,3,105,generalization,9,1,9,1,NaN,NaN,3.655382
5,3,106,generalization,10,0,10,1,NaN,NaN,0.365213
5,3,107,generalization,11,1,0,0,NaN,NaN,0.503148
5,3,108,generalization,12,0,11,1,NaN,NaN,0.539225
5,3,109,generalization,13,2,10,1,NaN,NaN,1.207511
5,3,110,generalization,14,2,11,1,NaN,NaN,0.007004
5,3,111,generalization,15,11,1,0,NaN,NaN,0.471911
5,3,112,generalization,16,11,0,0,NaN,NaN,0.301265
5,3,113,generalization,17,10,9,0,NaN,NaN,0.850806
5,3,114,generalization,18,10,0,0,NaN,NaN,2.169247
5,3,115,generalization,19,11,10,0,NaN,NaN,0.242125
5,3,116,generalization,20,0,2,0,NaN,NaN,1.129459
5,3,117,generalization,21,9,9,0,NaN,NaN,0.525336
5,3,118,generalization,22,6,5,0,NaN,NaN,2.025333
5,3,119,generalization,23,2,0,0,NaN,NaN,3.960041
5,3,120,generalization,24,9,1,0,NaN,NaN,0.250611
5,3,121,generalization,25,10,10,0,NaN,NaN,0.281240
5,3,122,generalization,26,11,6,0,NaN,NaN,1.160131
5,3,123,generalization,27,9,0,0,NaN,NaN,1.786439
5,3,124,generalization,28,9,10,0,NaN,NaN,0.291576
5,3,125,generalization,29,1,2,0,NaN,NaN,0.304911
5,3,126,generalization,30,6,1,0,NaN,NaN,0.000124
5,3,127,generalization,31,1,10,0,NaN,NaN,2.893751
5,3,128,generalization,32,1,11,0,NaN,NaN,0.298335
5,3,129,generalization,33,9,2,0,NaN,NaN,0.263108
5,3,130,generalization,34,5,0,0,NaN,NaN,0.269179
5,3,131,generalization,35,2,1,0,NaN,NaN,6.899139
5,3,132,generalization,36,11,2,0,NaN,NaN,1.878585
5,3,133,generalization,37,11,11,0,NaN,NaN,0.596276
5,3,134,generalization,38,10,11,0,NaN,NaN,0.485554
5,3,135,generalization,39,10,1,0,NaN,NaN,0.370295
5,3,136,generalization,40,0,0,0,NaN,NaN,1.739656
5,3,137,generalization,41,0,9,0,NaN,NaN,0.566656
5,3,138,generalization,42,9,11,0,NaN,NaN,1.216534
6,2,1,training,1,6,5,0,1,0,3.629343
6,2,2,training,2,11,6,1,0,0,2.869663
6,2,3,training,3,6,1,1,0,0,1.862803
6,2,4,training,4,5,0,0,0,1,1.288982
6,2,5,training,5,5,6,1,1,1,3.640589
6,2,6,training,6,5,6,1,1,1,2.909045
6,2,7,training,7,6,5,1,1,1,1.223953
6,2,8,training,8,10,5,0,0,1,0.877125
6,2,9,training,9,10,5,0,0,1,0.642596
6,2,10,training,10,5,6,1,1,1,0.397692
6,2,11,training,11,11,6,0,0,1,0.593342
6,2,12,training,12,6,5,1,1,1,0.335560
6,2,13,training,13,6,5,1,1,1,0.740536
6,2,14,training,14,6,1,1,0,0,0.898276
6,2,15,training,15,5,0,0,0,1,0.706977
6,2,16,training,16,5,6,1,1,1,0.339882
6,2,17,training,17,5,6,1,1,1,0.542347
6,2,18,training,18,5,0,0,0,1,0.443465
6,2,19,training,19,5,6,1,1,1,0.425235
6,2,20,training,20,10,5,0,0,1,0.499040
6,2,21,training,21,11,6,0,0,1,0.567475
6,2,22,training,22,6,5,1,1,1,0.450596
6,2,23,training,23,6,5,1,1,1,0.630887
6,2,24,training,24,6,1,0,0,1,0.990602
6,2,25,training,25,5,0,0,0,1,0.703312
6,2,26,training,26,6,5,1,1,1,1.285727
6,2,27,training,27,5,6,1,1,1,0.397306
6,2,28,training,28,6,1,0,0,1,2.391758
6,2,29,training,29,5,6,1,1,1,1.770848
6,2,30,training,30,6,5,1,1,1,0.294242
6,2,31,training,31,11,6,0,0,1,0.444671
6,2,32,training,32,10,5,0,0,1,0.516528
6,2,33,training,33,6,1,0,0,1,0.577640
6,2,34,training,34,6,5,1,1,1,0.340765
6,2,35,training,35,10,5,0,0,1,0.385201
6,2,36,training,36,5,0,0,0,1,0.404990
6,2,37,training,37,11,6,0,0,1,0.441435
6,2,38,training,38,6,5,1,1,1,5.099169
6,2,39,training,39,5,6,1,1,1,0.290800
6,2,40,training,40,5,6,1,1,1,0.283264
6,2,41,training,41,5,6,1,1,1,0.305782
6,2,42,training,42,10,5,0,0,1,0.573949
6,2,43,training,43,6,5,1,1,1,0.476926
6,2,44,training,44,5,0,0,0,1,0.564079
6,2,45,training,45,11,6,0,0,1,0.359973
6,2,46,training,46,6,5,1,1,1,0.799359
6,2,47,training,47,6,1,0,0,1,0.986423
6,2,48,training,48,5,6,1,1,1,0.790108
6,2,49,training,49,10,5,0,0,1,2.746886
6,2,50,training,50,5,6,1,1,1,0.592080
6,2,51,training,51,6,1,0,0,1,0.410439
6,2,52,training,52,6,5,1,1,1,0.581690
6,2,53,training,53,5,6,1,1,1,0.473373
6,2,54,training,54,6,5,1,1,1,0.330420
6,2,55,training,55,11,6,0,0,1,1.143584
6,2,56,training,56,5,0,0,0,1,0.291717
6,2,57,training,57,11,6,1,0,0,0.469692
6,2,58,training,58,10,5,0,0,1,0.326660
6,2,59,training,59,6,5,1,1,1,0.725207
6,2,60,training,60,6,1,0,0,1,0.417482
6,2,61,training,61,5,6,1,1,1,0.419240
6,2,62,training,62,5,0,0,0,1,0.348306
6,2,63,training,63,5,6,1,1,1,8.486351
6,2,64,training,64,6,5,1,1,1,0.397142
6,2,65,training,65,6,1,0,0,1,0.839548
6,2,66,training,66,6,5,1,1,1,0.495831
6,2,67,training,67,5,6,1,1,1,0.558944
6,2,68,training,68,5,6,1,1,1,0.514594
6,2,69,training,69,5,0,0,0,1,0.329791
6,2,70,training,70,10,5,0,0,1,0.764716
6,2,71,training,71,6,5,1,1,1,0.624320
6,2,72,training,72,11,6,0,0,1,0.553418
6,2,73,training,73,11,6,0,0,1,0.422439
6,2,74,training,74,10,5,0,0,1,0.526045
6,2,75,training,75,5,0,0,0,1,1.395114
6,2,76,training,76,6,5,1,1,1,0.427994
6,2,77,training,77,5,6,1,1,1,0.463676
6,2,78,training,78,5,6,1,1,1,0.362095
6,2,79,training,79,6,1,0,0,1,0.449010
6,2,80,training,80,6,5,1,1,1,1.516759
6,2,81,training,81,6,5,1,1,1,0.486809
6,2,82,training,82,5,0,0,0,1,0.413784
6,2,83,training,83,6,5,1,1,1,0.385118
6,2,84,training,84,10,5,0,0,1,2.433303
6,2,85,training,85,5,6,1,1,1,0.462181
6,2,86,training,86,6,1,0,0,1,0.624653
6,2,87,training,87,11,6,0,0,1,0.353743
6,2,88,training,88,5,6,1,1,1,0.497346
6,2,89,training,89,6,5,1,1,1,0.209185
6,2,90,training,90,6,1,0,0,1,0.395585
6,2,91,training,91,5,0,0,0,1,0.201264
6,2,92,training,92,11,6,0,0,1,0.919706
6,2,93,training,93,5,6,1,1,1,0.264557
6,2,94,training,94,5,6,1,1,1,0.497641
6,2,95,training,95,10,5,0,0,1,0.401354
6,2,96,training,96,6,5,1,1,1,0.646403
6,2,97,generalization,1,9,10,0,NaN,NaN,1.609080
6,2,98,generalization,2,11,11,0,NaN,NaN,0.393452
6,2,99,generalization,3,11,10,0,NaN,NaN,2.962826
6,2,100,generalization,4,9,2,0,NaN,NaN,0.508770
6,2,101,generalization,5,9,0,0,NaN,NaN,0.433571
6,2,102,generalization,6,2,11,1,NaN,NaN,0.783592
6,2,103,generalization,7,5,0,0,NaN,NaN,1.016783
6,2,104,generalization,8,1,2,1,NaN,NaN,0.520553
6,2,105,generalization,9,10,0,0,NaN,NaN,0.556079
6,2,106,generalization,10,10,5,0,NaN,NaN,1.118648
6,2,107,generalization,11,11,2,0,NaN,NaN,0.329830
6,2,108,generalization,12,2,1,1,NaN,NaN,0.301881
6,2,109,generalization,13,9,9,0,NaN,NaN,1.634622
6,2,110,generalization,14,9,1,0,NaN,NaN,0.465641
6,2,111,generalization,15,2,2,0,NaN,NaN,1.198961
6,2,112,generalization,16,1,10,1,NaN,NaN,0.423542
6,2,113,generalization,17,10,1,0,NaN,NaN,0.311638
6,2,114,generalization,18,1,11,1,NaN,NaN,0.420165
6,2,115,generalization,19,11,9,0,NaN,NaN,0.348300
6,2,116,generalization,20,0,1,0,NaN,NaN,1.718991
6,2,117,generalization,21,10,10,0,NaN,NaN,0.313969
6,2,118,generalization,22,5,6,1,NaN,NaN,0.847659
6,2,119,generalization,23,9,11,0,NaN,NaN,0.342566
6,2,120,generalization,24,2,0,0,NaN,NaN,0.618028
6,2,121,generalization,25,0,0,0,NaN,NaN,0.314091
6,2,122,generalization,26,11,6,0,NaN,NaN,1.894017
6,2,123,generalization,27,2,10,1,NaN,NaN,0.954946
6,2,124,generalization,28,10,11,1,NaN,NaN,1.669670
6,2,125,generalization,29,0,9,1,NaN,NaN,0.586529
6,2,126,generalization,30,11,0,0,NaN,NaN,0.386427
6,2,127,generalization,31,1,9,1,NaN,NaN,1.403843
6,2,128,generalization,32,1,0,0,NaN,NaN,0.716239
6,2,129,generalization,33,0,11,1,NaN,NaN,1.136221
6,2,130,generalization,34,0,2,0,NaN,NaN,0.498747
6,2,131,generalization,35,6,5,1,NaN,NaN,1.031319
6,2,132,generalization,36,10,9,1,NaN,NaN,0.527292
6,2,133,generalization,37,0,10,1,NaN,NaN,0.283303
6,2,134,generalization,38,10,2,0,NaN,NaN,0.456642
6,2,135,generalization,39,11,1,0,NaN,NaN,0.000125
6,2,136,generalization,40,1,1,0,NaN,NaN,0.832902
6,2,137,generalization,41,6,1,0,NaN,NaN,0.799532
6,2,138,generalization,42,2,9,1,NaN,NaN,0.848092
7,2,1,training,1,6,5,0,1,0,4.897138
7,2,2,training,2,11,6,1,0,0,2.291379
7,2,3,training,3,6,1,0,0,1,2.378004
7,2,4,training,4,10,5,0,0,1,2.245181
7,2,5,training,5,5,6,0,1,0,2.876227
7,2,6,training,6,6,5,1,1,1,1.650657
7,2,7,training,7,5,6,1,1,1,1.615545
7,2,8,training,8,5,0,1,0,0,2.293294
7,2,9,training,9,5,0,0,0,1,1.655187
7,2,10,training,10,11,6,0,0,1,1.365580
7,2,11,training,11,6,1,1,0,0,2.530326
7,2,12,training,12,10,5,1,0,0,1.856590
7,2,13,training,13,6,5,0,1,0,0.923762
7,2,14,training,14,5,6,0,1,0,1.845718
7,2,15,training,15,6,5,0,1,0,0.970078
7,2,16,training,16,5,6,1,1,1,1.666692
7,2,17,training,17,5,0,1,0,0,2.049762
7,2,18,training,18,6,5,1,1,1,4.328165
7,2,19,training,19,6,1,0,0,1,2.037837
7,2,20,training,20,5,6,1,1,1,1.937388
7,2,21,training,21,6,5,1,1,1,1.401041
7,2,22,training,22,11,6,0,0,1,0.913697
7,2,23,training,23,10,5,0,0,1,0.539777
7,2,24,training,24,5,6,1,1,1,3.527108
7,2,25,training,25,5,6,1,1,1,1.957526
7,2,26,training,26,11,6,0,0,1,0.605287
7,2,27,training,27,5,6,0,1,0,2.318659
7,2,28,training,28,6,5,1,1,1,1.498209
7,2,29,training,29,6,5,1,1,1,1.287474
7,2,30,training,30,6,1,1,0,0,1.349504
7,2,31,training,31,5,0,1,0,0,1.338297
7,2,32,training,32,10,5,0,0,1,0.819227
7,2,33,training,33,5,0,0,0,1,0.882629
7,2,34,training,34,5,6,0,1,0,0.864257
7,2,35,training,35,6,1,1,0,0,1.614852
7,2,36,training,36,6,5,0,1,0,2.103318
7,2,37,training,37,11,6,0,0,1,0.728287
7,2,38,training,38,10,5,1,0,0,4.385687
7,2,39,training,39,5,6,0,1,0,3.787736
7,2,40,training,40,6,5,1,1,1,3.143431
7,2,41,training,41,5,6,0,1,0,2.526038
7,2,42,training,42,6,5,1,1,1,1.488137
7,2,43,training,43,6,1,1,0,0,2.905983
7,2,44,training,44,6,5,1,1,1,3.446849
7,2,45,training,45,11,6,0,0,1,0.539597
7,2,46,training,46,5,0,0,0,1,3.422902
7,2,47,training,47,5,6,1,1,1,1.866872
7,2,48,training,48,10,5,0,0,1,2.387197
7,2,49,training,49,5,0,0,0,1,3.117149
7,2,50,training,50,6,1,0,0,1,0.900603
7,2,51,training,51,11,6,0,0,1,1.050711
7,2,52,training,52,10,5,0,0,1,0.816818
7,2,53,training,53,6,5,1,1,1,0.555006
7,2,54,training,54,5,6,1,1,1,0.486635
7,2,55,training,55,5,6,1,1,1,0.688234
7,2,56,training,56,6,5,1,1,1,0.655922
7,2,57,training,57,5,6,1,1,1,0.444701
7,2,58,training,58,5,0,0,0,1,0.510386
7,2,59,training,59,6,5,1,1,1,0.422643
7,2,60,training,60,6,5,1,1,1,0.545647
7,2,61,training,61,10,5,0,0,1,0.435462
7,2,62,training,62,11,6,0,0,1,0.617642
7,2,63,training,63,6,1,0,0,1,0.698961
7,2,64,training,64,5,6,1,1,1,0.336525
7,2,65,training,65,6,5,1,1,1,0.418230
7,2,66,training,66,5,0,0,0,1,0.537187
7,2,67,training,67,6,1,0,0,1,0.542791
7,2,68,training,68,11,6,0,0,1,0.369207
7,2,69,training,69,10,5,0,0,1,0.449528
7,2,70,training,70,5,6,1,1,1,0.228635
7,2,71,training,71,5,6,1,1,1,0.288580
7,2,72,training,72,6,5,1,1,1,0.476177
7,2,73,training,73,6,5,1,1,1,1.273074
7,2,74,training,74,5,6,1,1,1,0.407730
7,2,75,training,75,10,5,0,0,1,0.470613
7,2,76,training,76,6,5,1,1,1,0.303693
7,2,77,training,77,5,6,1,1,1,0.381436
7,2,78,training,78,6,1,0,0,1,0.553851
7,2,79,training,79,11,6,0,0,1,0.692158
7,2,80,training,80,5,0,0,0,1,1.745615
7,2,81,training,81,11,6,0,0,1,0.522217
7,2,82,training,82,5,6,1,1,1,0.302648
7,2,83,training,83,5,0,0,0,1,0.780728
7,2,84,training,84,5,6,1,1,1,0.413917
7,2,85,training,85,10,5,0,0,1,0.452456
7,2,86,training,86,6,5,1,1,1,0.293391
7,2,87,training,87,6,1,0,0,1,0.857934
7,2,88,training,88,6,5,1,1,1,0.458696
7,2,89,training,89,10,5,0,0,1,0.417706
7,2,90,training,90,6,1,0,0,1,0.433345
7,2,91,training,91,5,0,0,0,1,0.737747
7,2,92,training,92,5,6,1,1,1,0.217322
7,2,93,training,93,5,6,1,1,1,0.249743
7,2,94,training,94,11,6,0,0,1,0.273507
7,2,95,training,95,6,5,1,1,1,0.415356
7,2,96,training,96,6,5,1,1,1,0.239768
7,2,97,generalization,1,2,0,0,NaN,NaN,1.857647
7,2,98,generalization,2,2,10,0,NaN,NaN,6.895090
7,2,99,generalization,3,1,2,0,NaN,NaN,1.401845
7,2,100,generalization,4,9,10,0,NaN,NaN,1.490317
7,2,101,generalization,5,10,2,0,NaN,NaN,1.615338
7,2,102,generalization,6,1,0,0,NaN,NaN,0.870336
7,2,103,generalization,7,2,11,1,NaN,NaN,0.643551
7,2,104,generalization,8,6,5,1,NaN,NaN,1.410859
7,2,105,generalization,9,5,6,1,NaN,NaN,0.619319
7,2,106,generalization,10,10,10,0,NaN,NaN,0.715296
7,2,107,generalization,11,10,9,0,NaN,NaN,0.543264
7,2,108,generalization,12,2,9,1,NaN,NaN,0.618614
7,2,109,generalization,13,0,9,1,NaN,NaN,0.594521
7,2,110,generalization,14,2,2,0,NaN,NaN,0.323942
7,2,111,generalization,15,11,9,0,NaN,NaN,0.423948
7,2,112,generalization,16,0,11,1,NaN,NaN,1.191928
7,2,113,generalization,17,9,0,0,NaN,NaN,0.433216
7,2,114,generalization,18,6,1,0,NaN,NaN,0.407798
7,2,115,generalization,19,0,1,0,NaN,NaN,1.431855
7,2,116,generalization,20,10,1,0,NaN,NaN,0.406899
7,2,117,generalization,21,9,11,1,NaN,NaN,2.815667
7,2,118,generalization,22,10,0,0,NaN,NaN,0.422999
7,2,119,generalization,23,0,0,0,NaN,NaN,0.918945
7,2,120,generalization,24,5,0,0,NaN,NaN,0.434160
7,2,121,generalization,25,11,1,0,NaN,NaN,0.289560
7,2,122,generalization,26,10,5,0,NaN,NaN,2.422254
7,2,123,generalization,27,11,2,0,NaN,NaN,0.349768
7,2,124,generalization,28,11,0,0,NaN,NaN,0.328435
7,2,125,generalization,29,11,10,0,NaN,NaN,0.588513
7,2,126,generalization,30,1,11,1,NaN,NaN,0.293257
7,2,127,generalization,31,10,11,0,NaN,NaN,1.059557
7,2,128,generalization,32,0,10,1,NaN,NaN,0.257803
7,2,129,generalization,33,9,1,0,NaN,NaN,0.384006
7,2,130,generalization,34,11,11,0,NaN,NaN,0.496637
7,2,131,generalization,35,9,9,0,NaN,NaN,0.493915
7,2,132,generalization,36,2,1,0,NaN,NaN,1.034009
7,2,133,generalization,37,9,2,0,NaN,NaN,3.497137
7,2,134,generalization,38,0,2,0,NaN,NaN,0.405582
7,2,135,generalization,39,1,1,0,NaN,NaN,0.286300
7,2,136,generalization,40,1,9,1,NaN,NaN,0.435740
7,2,137,generalization,41,1,10,1,NaN,NaN,0.291140
7,2,138,generalization,42,11,6,0,NaN,NaN,0.456467
8,1,1,training,1,6,5,1,1,1,1.891463
8,1,2,training,2,6,1,1,0,0,8.444949
8,1,3,training,3,6,5,1,1,1,0.635431
8,1,4,training,4,10,5,1,0,0,0.443155
8,1,5,training,5,11,6,0,0,1,0.756241
8,1,6,training,6,5,6,1,1,1,0.849585
8,1,7,training,7,5,0,0,0,1,1.309102
8,1,8,training,8,5,6,1,1,1,0.361135
8,1,9,training,9,6,5,1,1,1,0.788919
8,1,10,training,10,10,5,0,0,1,0.456563
8,1,11,training,11,5,0,0,0,1,1.934637
8,1,12,training,12,6,5,1,1,1,0.472705
8,1,13,training,13,6,1,0,0,1,0.963109
8,1,14,training,14,5,6,1,1,1,0.375439
8,1,15,training,15,11,6,0,0,1,0.380468
8,1,16,training,16,5,6,1,1,1,0.346339
8,1,17,training,17,5,6,1,1,1,0.238851
8,1,18,training,18,6,5,1,1,1,0.393864
8,1,19,training,19,5,6,1,1,1,0.405636
8,1,20,training,20,5,0,0,0,1,0.223536
8,1,21,training,21,6,1,0,0,1,0.865941
8,1,22,training,22,6,5,1,1,1,0.226304
8,1,23,training,23,10,5,0,0,1,0.408727
8,1,24,training,24,11,6,0,0,1,0.989808
8,1,25,training,25,6,5,1,1,1,0.214782
8,1,26,training,26,10,5,0,0,1,0.423907
8,1,27,training,27,5,6,1,1,1,0.197678
8,1,28,training,28,6,5,1,1,1,0.243575
8,1,29,training,29,11,6,0,0,1,0.618656
8,1,30,training,30,5,6,1,1,1,0.000195
8,1,31,training,31,6,1,0,0,1,0.192248
8,1,32,training,32,5,0,0,0,1,0.270747
8,1,33,training,33,10,5,0,0,1,0.404582
8,1,34,training,34,5,0,0,0,1,0.435084
8,1,35,training,35,5,6,1,1,1,0.202888
8,1,36,training,36,6,5,1,1,1,0.194806
8,1,37,training,37,6,5,1,1,1,0.471932
8,1,38,training,38,6,1,0,0,1,0.678961
8,1,39,training,39,11,6,0,0,1,0.493702
8,1,40,training,40,5,6,1,1,1,0.427783
8,1,41,training,41,10,5,0,0,1,0.242416
8,1,42,training,42,5,6,1,1,1,0.321030
8,1,43,training,43,6,5,1,1,1,0.232637
8,1,44,training,44,5,6,1,1,1,0.386517
8,1,45,training,45,11,6,0,0,1,0.661508
8,1,46,training,46,6,5,1,1,1,0.323262
8,1,47,training,47,6,1,0,0,1,0.449598
8,1,48,training,48,5,0,0,0,1,0.307422
8,1,49,training,49,5,0,0,0,1,0.306473
8,1,50,training,50,6,5,1,1,1,1.414279
8,1,51,training,51,6,1,0,0,1,0.345150
8,1,52,training,52,6,5,1,1,1,0.504229
8,1,53,training,53,5,6,1,1,1,0.245232
8,1,54,training,54,5,6,1,1,1,0.376474
8,1,55,training,55,11,6,0,0,1,0.236969
8,1,56,training,56,10,5,0,0,1,0.181440
8,1,57,training,57,6,1,0,0,1,0.416697
8,1,58,training,58,11,6,0,0,1,0.411175
8,1,59,training,59,5,0,0,0,1,0.226315
8,1,60,training,60,5,6,1,1,1,0.177458
8,1,61,training,61,5,6,1,1,1,0.100634
8,1,62,training,62,6,5,1,1,1,0.011921
8,1,63,training,63,10,5,0,0,1,0.325851
8,1,64,training,64,6,5,1,1,1,0.226916
8,1,65,training,65,5,6,1,1,1,0.353863
8,1,66,training,66,10,5,0,0,1,0.233786
8,1,67,training,67,6,5,1,1,1,0.216850
8,1,68,training,68,6,1,0,0,1,0.266051
8,1,69,training,69,5,0,0,0,1,0.189934
8,1,70,training,70,5,6,1,1,1,0.132424
8,1,71,training,71,11,6,0,0,1,0.256938
8,1,72,training,72,6,5,1,1,1,0.270165
8,1,73,training,73,6,1,0,0,1,0.515283
8,1,74,training,74,5,6,1,1,1,0.198949
8,1,75,training,75,11,6,0,0,1,0.310819
8,1,76,training,76,5,0,0,0,1,0.267240
8,1,77,training,77,6,5,1,1,1,0.622464
8,1,78,training,78,10,5,0,0,1,0.828180
8,1,79,training,79,5,6,1,1,1,1.600380
8,1,80,training,80,6,5,1,1,1,0.561027
8,1,81,training,81,5,6,1,1,1,0.280135
8,1,82,training,82,5,0,0,0,1,0.757743
8,1,83,training,83,5,6,1,1,1,6.377953
8,1,84,training,84,6,5,1,1,1,1.913278
8,1,85,training,85,6,5,1,1,1,0.059328
8,1,86,training,86,6,1,0,0,1,0.441058
8,1,87,training,87,10,5,0,0,1,0.289580
8,1,88,training,88,11,6,0,0,1,0.258626
8,1,89,training,89,11,6,0,0,1,0.223177
8,1,90,training,90,5,6,1,1,1,0.564256
8,1,91,training,91,6,1,0,0,1,1.855350
8,1,92,training,92,5,0,0,0,1,0.305974
8,1,93,training,93,6,5,1,1,1,1.595725
8,1,94,training,94,10,5,0,0,1,0.621187
8,1,95,training,95,5,6,1,1,1,0.572313
8,1,96,training,96,6,5,1,1,1,0.377394
8,1,97,generalization,1,11,0,0,NaN,NaN,0.877667
8,1,98,generalization,2,2,10,1,NaN,NaN,0.451653
8,1,99,generalization,3,11,1,0,NaN,NaN,0.306358
8,1,100,generalization,4,10,1,0,NaN,NaN,0.487092
8,1,101,generalization,5,10,11,0,NaN,NaN,1.556447
8,1,102,generalization,6,1,2,1,NaN,NaN,0.270864
8,1,103,generalization,7,2,11,1,NaN,NaN,2.780797
8,1,104,generalization,8,10,0,0,NaN,NaN,1.837474
8,1,105,generalization,9,1,9,1,NaN,NaN,0.420493
8,1,106,generalization,10,11,11,0,NaN,NaN,1.828408
8,1,107,generalization,11,1,0,0,NaN,NaN,3.900001
8,1,108,generalization,12,2,0,0,NaN,NaN,2.231812
8,1,109,generalization,13,5,6,1,NaN,NaN,1.967205
8,1,110,generalization,14,0,1,0,NaN,NaN,3.655980
8,1,111,generalization,15,9,1,0,NaN,NaN,0.437737
8,1,112,generalization,16,9,0,0,NaN,NaN,0.214166
8,1,113,generalization,17,1,11,1,NaN,NaN,0.245976
8,1,114,generalization,18,1,10,1,NaN,NaN,0.205460
8,1,115,generalization,19,0,11,1,NaN,NaN,0.231177
8,1,116,generalization,20,6,5,1,NaN,NaN,7.022088
8,1,117,generalization,21,10,2,0,NaN,NaN,3.380172
8,1,118,generalization,22,11,10,0,NaN,NaN,1.501330
8,1,119,generalization,23,0,0,1,NaN,NaN,0.241774
8,1,120,generalization,24,0,9,1,NaN,NaN,0.265106
8,1,121,generalization,25,9,9,0,NaN,NaN,0.279236
8,1,122,generalization,26,10,5,0,NaN,NaN,0.932617
8,1,123,generalization,27,11,2,0,NaN,NaN,0.783883
8,1,124,generalization,28,2,2,0,NaN,NaN,1.000405
8,1,125,generalization,29,2,9,1,NaN,NaN,0.672940
8,1,126,generalization,30,11,9,0,NaN,NaN,3.654189
8,1,127,generalization,31,6,1,0,NaN,NaN,0.516108
8,1,128,generalization,32,0,10,1,NaN,NaN,0.383410
8,1,129,generalization,33,9,10,0,NaN,NaN,3.472668
8,1,130,generalization,34,2,1,0,NaN,NaN,0.717042
8,1,131,generalization,35,1,1,0,NaN,NaN,1.649058
8,1,132,generalization,36,11,6,0,NaN,NaN,3.567403
8,1,133,generalization,37,9,2,0,NaN,NaN,0.248552
8,1,134,generalization,38,9,11,0,NaN,NaN,6.903109
8,1,135,generalization,39,10,9,0,NaN,NaN,4.929807
8,1,136,generalization,40,5,0,0,NaN,NaN,0.587838
8,1,137,generalization,41,10,10,0,NaN,NaN,0.197264
8,1,138,generalization,42,0,2,0,NaN,NaN,0.813988
9,4,1,training,1,6,1,0,0,1,6.646592
9,4,2,training,2,5,6,0,1,0,2.902834
9,4,3,training,3,5,6,1,1,1,0.641473
9,4,4,training,4,6,5,1,1,1,0.985826
9,4,5,training,5,10,5,1,0,0,0.815316
9,4,6,training,6,11,6,0,0,1,0.619030
9,4,7,training,7,6,5,1,1,1,0.783084
9,4,8,training,8,5,0,0,0,1,0.532055
9,4,9,training,9,5,6,1,1,1,0.634294
9,4,10,training,10,5,0,0,0,1,0.427983
9,4,11,training,11,10,5,0,0,1,0.413059
9,4,12,training,12,11,6,0,0,1,0.272113
9,4,13,training,13,6,5,1,1,1,0.655151
9,4,14,training,14,5,6,1,1,1,0.328674
9,4,15,training,15,6,1,0,0,1,0.338487
9,4,16,training,16,6,5,1,1,1,0.318182
9,4,17,training,17,6,5,1,1,1,0.294002
9,4,18,training,18,6,5,1,1,1,0.281775
9,4,19,training,19,5,0,0,0,1,0.252100
9,4,20,training,20,6,1,0,0,1,0.611329
9,4,21,training,21,5,6,1,1,1,0.291039
9,4,22,training,22,11,6,0,0,1,0.254848
9,4,23,training,23,10,5,0,0,1,0.227852
9,4,24,training,24,5,6,1,1,1,0.318423
9,4,25,training,25,5,6,1,1,1,0.266228
9,4,26,training,26,6,1,0,0,1,0.303981
9,4,27,training,27,5,6,1,1,1,0.240460
9,4,28,training,28,6,5,1,1,1,0.262762
9,4,29,training,29,6,5,1,1,1,0.306508
9,4,30,training,30,11,6,0,0,1,0.256367
9,4,31,training,31,10,5,0,0,1,0.237475
9,4,32,training,32,5,0,0,0,1,0.290594
9,4,33,training,33,11,6,0,0,1,0.312411
9,4,34,training,34,6,5,1,1,1,0.273552
9,4,35,training,35,5,6,1,1,1,0.249321
9,4,36,training,36,5,0,0,0,1,0.254493
9,4,37,training,37,10,5,0,0,1,0.239645
9,4,38,training,38,6,1,0,0,1,0.287313
9,4,39,training,39,5,6,1,1,1,0.267732
9,4,40,training,40,6,5,1,1,1,0.256240
9,4,41,training,41,6,1,0,0,1,0.371978
9,4,42,training,42,11,6,0,0,1,0.245060
9,4,43,training,43,6,5,1,1,1,0.238836
9,4,44,training,44,5,6,1,1,1,0.283201
9,4,45,training,45,5,0,0,0,1,0.241041
9,4,46,training,46,6,5,1,1,1,0.228220
9,4,47,training,47,5,6,1,1,1,0.232663
9,4,48,training,48,10,5,0,0,1,0.231093
9,4,49,training,49,6,5,1,1,1,0.279706
9,4,50,training,50,5,6,1,1,1,0.236662
9,4,51,training,51,5,6,1,1,1,0.225683
9,4,52,training,52,11,6,0,0,1,0.234834
9,4,53,training,53,6,1,0,0,1,0.265347
9,4,54,training,54,6,5,1,1,1,0.262426
9,4,55,training,55,5,0,0,0,1,0.237590
9,4,56,training,56,10,5,0,0,1,0.382617
9,4,57,training,57,5,6,1,1,1,0.270329
9,4,58,training,58,6,5,1,1,1,0.222294
9,4,59,training,59,6,1,0,0,1,0.244642
9,4,60,training,60,10,5,0,0,1,0.221140
9,4,61,training,61,5,6,1,1,1,0.231677
9,4,62,training,62,11,6,0,0,1,0.206587
9,4,63,training,63,5,0,0,0,1,0.211051
9,4,64,training,64,6,5,1,1,1,0.265590
9,4,65,training,65,11,6,0,0,1,0.268030
9,4,66,training,66,10,5,0,0,1,0.297793
9,4,67,training,67,6,5,1,1,1,0.246312
9,4,68,training,68,5,6,1,1,1,0.231624
9,4,69,training,69,5,0,0,0,1,0.239083
9,4,70,training,70,6,1,0,0,1,0.250269
9,4,71,training,71,6,5,1,1,1,0.638688
9,4,72,training,72,5,6,1,1,1,0.203002
9,4,73,training,73,5,6,1,1,1,0.227537
9,4,74,training,74,10,5,0,0,1,0.230697
9,4,75,training,75,5,0,0,0,1,0.228507
9,4,76,training,76,6,5,1,1,1,0.244213
9,4,77,training,77,11,6,0,0,1,0.220809
9,4,78,training,78,6,5,1,1,1,0.212624
9,4,79,training,79,6,1,0,0,1,0.213571
9,4,80,training,80,5,6,1,1,1,0.214213
9,4,81,training,81,5,0,0,0,1,0.215195
9,4,82,training,82,5,6,1,1,1,0.231659
9,4,83,training,83,6,5,1,1,1,0.262051
9,4,84,training,84,11,6,0,0,1,0.220545
9,4,85,training,85,5,6,1,1,1,0.213689
9,4,86,training,86,10,5,0,0,1,0.219523
9,4,87,training,87,6,5,1,1,1,0.251962
9,4,88,training,88,6,1,0,0,1,0.235055
9,4,89,training,89,10,5,0,0,1,0.226917
9,4,90,training,90,6,5,1,1,1,0.267556
9,4,91,training,91,11,6,0,0,1,0.225806
9,4,92,training,92,6,1,0,0,1,0.186392
9,4,93,training,93,6,5,1,1,1,0.188145
9,4,94,training,94,5,0,0,0,1,0.239268
9,4,95,training,95,5,6,1,1,1,0.273091
9,4,96,training,96,5,6,1,1,1,0.270743
9,4,97,generalization,1,1,2,0,NaN,NaN,6.319654
9,4,98,generalization,2,10,0,0,NaN,NaN,13.617661
9,4,99,generalization,3,11,1,1,NaN,NaN,1.958583
9,4,100,generalization,4,0,11,1,NaN,NaN,0.552855
9,4,101,generalization,5,6,5,1,NaN,NaN,1.723561
9,4,102,generalization,6,1,10,1,NaN,NaN,0.639216
9,4,103,generalization,7,10,1,0,NaN,NaN,0.822413
9,4,104,generalization,8,10,2,0,NaN,NaN,0.333746
9,4,105,generalization,9,6,1,0,NaN,NaN,2.168374
9,4,106,generalization,10,10,10,1,NaN,NaN,3.489785
9,4,107,generalization,11,11,6,1,NaN,NaN,0.598352
9,4,108,generalization,12,11,10,1,NaN,NaN,0.382982
9,4,109,generalization,13,5,6,0,NaN,NaN,0.656310
9,4,110,generalization,14,11,11,1,NaN,NaN,1.663101
9,4,111,generalization,15,0,10,1,NaN,NaN,1.365338
9,4,112,generalization,16,9,10,1,NaN,NaN,1.631049
9,4,113,generalization,17,0,1,0,NaN,NaN,0.486809
9,4,114,generalization,18,9,1,0,NaN,NaN,1.596044
9,4,115,generalization,19,5,0,0,NaN,NaN,0.341085
9,4,116,generalization,20,9,0,0,NaN,NaN,0.255862
9,4,117,generalization,21,1,1,0,NaN,NaN,0.254697
9,4,118,generalization,22,0,0,0,NaN,NaN,0.660717
9,4,119,generalization,23,2,0,0,NaN,NaN,0.339437
9,4,120,generalization,24,1,9,1,NaN,NaN,0.382720
9,4,121,generalization,25,0,9,1,NaN,NaN,0.296155
9,4,122,generalization,26,2,9,1,NaN,NaN,0.333571
9,4,123,generalization,27,9,2,0,NaN,NaN,0.320953
9,4,124,generalization,28,1,11,1,NaN,NaN,0.325050
9,4,125,generalization,29,11,0,0,NaN,NaN,0.257189
9,4,126,generalization,30,9,11,1,NaN,NaN,0.359924
9,4,127,generalization,31,2,1,0,NaN,NaN,0.338607
9,4,128,generalization,32,10,5,1,NaN,NaN,0.589982
9,4,129,generalization,33,10,11,1,NaN,NaN,0.279314
9,4,130,generalization,34,2,11,1,NaN,NaN,0.701454
9,4,131,generalization,35,11,2,0,NaN,NaN,0.794052
9,4,132,generalization,36,11,9,1,NaN,NaN,0.315283
9,4,133,generalization,37,1,0,0,NaN,NaN,0.391380
9,4,134,generalization,38,10,9,1,NaN,NaN,0.360869
9,4,135,generalization,39,9,9,1,NaN,NaN,0.323539
9,4,136,generalization,40,0,2,0,NaN,NaN,0.383651
9,4,137,generalization,41,2,10,1,NaN,NaN,0.369059
9,4,138,generalization,42,2,2,0,NaN,NaN,0.234982
10,2,1,training,1,5,0,0,0,1,1.821542
10,2,2,training,2,6,5,0,1,0,1.602030
10,2,3,training,3,11,6,1,0,0,1.125752
10,2,4,training,4,10,5,0,0,1,1.492327
10,2,5,training,5,6,1,0,0,1,1.035563
10,2,6,training,6,5,6,0,1,0,1.699580
10,2,7,training,7,5,6,1,1,1,0.347625
10,2,8,training,8,6,5,1,1,1,0.523927
10,2,9,training,9,11,6,0,0,1,0.434746
10,2,10,training,10,5,0,0,0,1,1.441112
10,2,11,training,11,10,5,1,0,0,1.901817
10,2,12,training,12,6,5,1,1,1,0.979694
10,2,13,training,13,6,5,1,1,1,0.299161
10,2,14,training,14,6,1,0,0,1,0.336904
10,2,15,training,15,5,6,0,1,0,0.361838
10,2,16,training,16,5,6,1,1,1,0.729510
10,2,17,training,17,5,6,1,1,1,0.381065
10,2,18,training,18,5,0,0,0,1,0.252800
10,2,19,training,19,5,6,1,1,1,1.011664
10,2,20,training,20,10,5,0,0,1,0.453100
10,2,21,training,21,6,1,0,0,1,0.281350
10,2,22,training,22,11,6,0,0,1,1.585084
10,2,23,training,23,6,5,1,1,1,0.760148
10,2,24,training,24,6,5,1,1,1,0.305998
10,2,25,training,25,10,5,0,0,1,0.521666
10,2,26,training,26,6,5,1,1,1,0.957348
10,2,27,training,27,11,6,0,0,1,0.959586
10,2,28,training,28,6,1,0,0,1,0.298387
10,2,29,training,29,5,6,1,1,1,0.616866
10,2,30,training,30,5,6,1,1,1,0.384862
10,2,31,training,31,5,0,0,0,1,0.481862
10,2,32,training,32,6,5,0,1,0,1.048029
10,2,33,training,33,11,6,0,0,1,0.498662
10,2,34,training,34,10,5,0,0,1,0.846415
10,2,35,training,35,6,1,0,0,1,0.511188
10,2,36,training,36,5,6,1,1,1,1.535470
10,2,37,training,37,5,6,1,1,1,0.318275
10,2,38,training,38,6,5,1,1,1,0.333949
10,2,39,training,39,6,5,1,1,1,0.686853
10,2,40,training,40,5,0,0,0,1,0.242574
10,2,41,training,41,6,5,1,1,1,0.747582
10,2,42,training,42,6,1,0,0,1,0.365835
10,2,43,training,43,6,5,1,1,1,0.363539
10,2,44,training,44,5,0,0,0,1,0.253820
10,2,45,training,45,10,5,0,0,1,0.352208
10,2,46,training,46,5,6,1,1,1,0.395405
10,2,47,training,47,5,6,1,1,1,0.400968
10,2,48,training,48,11,6,0,0,1,0.272724
10,2,49,training,49,6,5,1,1,1,1.074388
10,2,50,training,50,6,5,1,1,1,0.343803
10,2,51,training,51,5,6,1,1,1,0.440170
10,2,52,training,52,5,6,1,1,1,0.248313
10,2,53,training,53,11,6,0,0,1,0.253169
10,2,54,training,54,6,1,0,0,1,0.267504
10,2,55,training,55,10,5,0,0,1,0.275189
10,2,56,training,56,5,0,0,0,1,0.226368
10,2,57,training,57,5,6,1,1,1,0.229249
10,2,58,training,58,11,6,0,0,1,0.292641
10,2,59,training,59,6,1,0,0,1,0.264088
10,2,60,training,60,6,5,1,1,1,0.250548
10,2,61,training,61,10,5,0,0,1,0.262952
10,2,62,training,62,5,0,0,0,1,0.699337
10,2,63,training,63,6,5,1,1,1,0.248305
10,2,64,training,64,5,6,1,1,1,0.448663
10,2,65,training,65,11,6,0,0,1,0.230362
10,2,66,training,66,5,0,0,0,1,0.234190
10,2,67,training,67,6,5,1,1,1,0.405206
10,2,68,training,68,5,6,1,1,1,0.309563
10,2,69,training,69,6,1,0,0,1,0.190077
10,2,70,training,70,5,6,1,1,1,0.193761
10,2,71,training,71,10,5,0,0,1,0.227285
10,2,72,training,72,6,5,1,1,1,0.210728
10,2,73,training,73,5,6,1,1,1,0.211221
10,2,74,training,74,11,6,0,0,1,0.212318
10,2,75,training,75,10,5,0,0,1,0.212209
10,2,76,training,76,6,5,1,1,1,0.222560
10,2,77,training,77,6,5,1,1,1,0.269775
10,2,78,training,78,6,1,0,0,1,0.228169
10,2,79,training,79,5,6,1,1,1,0.232059
10,2,80,training,80,5,0,0,0,1,0.488472
10,2,81,training,81,6,5,1,1,1,0.230338
10,2,82,training,82,6,5,1,1,1,1.045288
10,2,83,training,83,5,0,0,0,1,0.670505
10,2,84,training,84,11,6,0,0,1,0.315847
10,2,85,training,85,10,5,0,0,1,0.256949
10,2,86,training,86,5,6,1,1,1,0.217274
10,2,87,training,87,5,6,1,1,1,0.203695
10,2,88,training,88,6,1,0,0,1,0.307388
10,2,89,training,89,11,6,0,0,1,0.233156
10,2,90,training,90,5,0,0,0,1,0.310866
10,2,91,training,91,5,6,1,1,1,0.417273
10,2,92,training,92,5,6,1,1,1,0.699628
10,2,93,training,93,6,1,0,0,1,0.800546
10,2,94,training,94,10,5,0,0,1,0.512705
10,2,95,training,95,6,5,1,1,1,0.615071
10,2,96,training,96,6,5,1,1,1,0.254780
10,2,97,generalization,1,2,10,1,NaN,NaN,1.735581
10,2,98,generalization,2,1,10,1,NaN,NaN,1.410402
10,2,99,generalization,3,10,0,0,NaN,NaN,1.082781
10,2,100,generalization,4,10,9,0,NaN,NaN,3.943956
10,2,101,generalization,5,1,9,1,NaN,NaN,13.521975
10,2,102,generalization,6,11,6,0,NaN,NaN,0.562164
10,2,103,generalization,7,2,2,0,NaN,NaN,1.020182
10,2,104,generalization,8,10,2,0,NaN,NaN,1.020078
10,2,105,generalization,9,10,10,0,NaN,NaN,0.651960
10,2,106,generalization,10,9,9,0,NaN,NaN,0.442500
10,2,107,generalization,11,6,5,0,NaN,NaN,0.905907
10,2,108,generalization,12,1,2,0,NaN,NaN,1.757789
10,2,109,generalization,13,9,10,0,NaN,NaN,0.704283
10,2,110,generalization,14,11,10,0,NaN,NaN,0.852075
10,2,111,generalization,15,11,9,0,NaN,NaN,0.514644
10,2,112,generalization,16,6,1,0,NaN,NaN,1.175284
10,2,113,generalization,17,9,11,0,NaN,NaN,0.456443
10,2,114,generalization,18,1,1,1,NaN,NaN,0.719156
10,2,115,generalization,19,0,9,1,NaN,NaN,0.331192
10,2,116,generalization,20,11,11,0,NaN,NaN,1.823192
10,2,117,generalization,21,11,2,0,NaN,NaN,1.086692
10,2,118,generalization,22,10,1,0,NaN,NaN,0.323950
10,2,119,generalization,23,5,0,0,NaN,NaN,0.336039
10,2,120,generalization,24,0,10,1,NaN,NaN,0.274702
10,2,121,generalization,25,9,2,0,NaN,NaN,0.296816
10,2,122,generalization,26,2,0,1,NaN,NaN,0.750258
10,2,123,generalization,27,2,9,1,NaN,NaN,0.521908
10,2,124,generalization,28,0,11,1,NaN,NaN,0.277531
10,2,125,generalization,29,9,1,0,NaN,NaN,0.739703
10,2,126,generalization,30,5,6,0,NaN,NaN,0.246909
10,2,127,generalization,31,0,2,1,NaN,NaN,0.510443
10,2,128,generalization,32,9,0,0,NaN,NaN,0.258983
10,2,129,generalization,33,0,0,1,NaN,NaN,0.890784
10,2,130,generalization,34,1,11,1,NaN,NaN,0.472625
10,2,131,generalization,35,10,11,0,NaN,NaN,0.277691
10,2,132,generalization,36,10,5,0,NaN,NaN,0.251762
10,2,133,generalization,37,1,0,0,NaN,NaN,0.642610
10,2,134,generalization,38,0,1,1,NaN,NaN,2.633837
10,2,135,generalization,39,11,0,0,NaN,NaN,0.392517
10,2,136,generalization,40,2,11,0,NaN,NaN,2.089857
10,2,137,generalization,41,2,1,0,NaN,NaN,0.878833
10,2,138,generalization,42,11,1,0,NaN,NaN,0.348898
11,2,1,training,1,6,5,1,1,1,4.094775
11,2,2,training,2,5,6,1,1,1,1.160223
11,2,3,training,3,10,5,1,0,0,3.441799
11,2,4,training,4,11,6,0,0,1,0.716906
11,2,5,training,5,6,1,1,0,0,0.770307
11,2,6,training,6,5,6,1,1,1,0.514031
11,2,7,training,7,5,0,0,0,1,0.883154
11,2,8,training,8,6,5,1,1,1,1.267668
11,2,9,training,9,5,6,1,1,1,0.718289
11,2,10,training,10,5,0,0,0,1,0.911270
11,2,11,training,11,6,5,1,1,1,0.477856
11,2,12,training,12,6,1,0,0,1,0.674910
11,2,13,training,13,11,6,0,0,1,0.766484
11,2,14,training,14,5,6,1,1,1,0.676802
11,2,15,training,15,6,5,1,1,1,0.501023
11,2,16,training,16,10,5,0,0,1,0.510143
11,2,17,training,17,5,6,1,1,1,0.304493
11,2,18,training,18,6,5,1,1,1,0.376837
11,2,19,training,19,6,5,1,1,1,0.249224
11,2,20,training,20,5,0,0,0,1,0.552836
11,2,21,training,21,11,6,0,0,1,0.434609
11,2,22,training,22,6,1,0,0,1,0.723491
11,2,23,training,23,10,5,0,0,1,0.449688
11,2,24,training,24,5,6,1,1,1,0.296732
11,2,25,training,25,5,6,1,1,1,0.312390
11,2,26,training,26,5,0,0,0,1,0.282051
11,2,27,training,27,5,6,1,1,1,0.304321
11,2,28,training,28,11,6,0,0,1,0.380721
11,2,29,training,29,10,5,0,0,1,0.580362
11,2,30,training,30,6,5,1,1,1,0.216065
11,2,31,training,31,6,1,0,0,1,0.507085
11,2,32,training,32,6,5,1,1,1,0.033236
11,2,33,training,33,5,6,1,1,1,0.264348
11,2,34,training,34,11,6,0,0,1,0.378030
11,2,35,training,35,6,1,0,0,1,0.373670
11,2,36,training,36,10,5,0,0,1,0.510132
11,2,37,training,37,6,5,1,1,1,0.441068
11,2,38,training,38,5,6,1,1,1,0.452738
11,2,39,training,39,5,0,0,0,1,0.302070
11,2,40,training,40,6,5,1,1,1,0.244144
11,2,41,training,41,5,6,1,1,1,0.294564
11,2,42,training,42,10,5,0,0,1,0.645487
11,2,43,training,43,6,5,1,1,1,0.209238
11,2,44,training,44,6,1,0,0,1,0.337670
11,2,45,training,45,5,6,1,1,1,0.623813
11,2,46,training,46,11,6,0,0,1,0.287437
11,2,47,training,47,6,5,1,1,1,0.767030
11,2,48,training,48,5,0,0,0,1,0.501194
11,2,49,training,49,11,6,0,0,1,0.788272
11,2,50,training,50,5,0,0,0,1,0.385739
11,2,51,training,51,5,6,1,1,1,0.120653
11,2,52,training,52,6,1,0,0,1,0.212311
11,2,53,training,53,5,6,1,1,1,0.329175
11,2,54,training,54,6,5,1,1,1,0.289866
11,2,55,training,55,10,5,0,0,1,0.447571
11,2,56,training,56,6,5,1,1,1,0.507177
11,2,57,training,57,10,5,0,0,1,0.446715
11,2,58,training,58,6,5,1,1,1,0.524384
11,2,59,training,59,5,0,0,0,1,0.240676
11,2,60,training,60,6,5,1,1,1,0.981101
11,2,61,training,61,11,6,0,0,1,0.270522
11,2,62,training,62,5,6,1,1,1,0.206353
11,2,63,training,63,6,1,0,0,1,0.198649
11,2,64,training,64,5,6,1,1,1,0.539024
11,2,65,training,65,6,1,0,0,1,0.236626
11,2,66,training,66,6,5,1,1,1,0.278488
11,2,67,training,67,10,5,0,0,1,1.201370
11,2,68,training,68,5,0,0,0,1,0.794767
11,2,69,training,69,11,6,0,0,1,0.663089
11,2,70,training,70,6,5,1,1,1,0.685254
11,2,71,training,71,5,6,1,1,1,0.222332
11,2,72,training,72,5,6,1,1,1,0.249444
11,2,73,training,73,5,0,0,0,1,0.267164
11,2,74,training,74,5,6,1,1,1,0.753547
11,2,75,training,75,10,5,0,0,1,1.001417
11,2,76,training,76,11,6,0,0,1,0.244056
11,2,77,training,77,6,5,1,1,1,0.419078
11,2,78,training,78,6,1,0,0,1,0.217663
11,2,79,training,79,5,6,1,1,1,0.440147
11,2,80,training,80,6,5,1,1,1,0.501033
11,2,81,training,81,10,5,0,0,1,0.219997
11,2,82,training,82,6,5,1,1,1,0.326623
11,2,83,training,83,6,5,1,1,1,0.403651
11,2,84,training,84,5,6,1,1,1,0.893987
11,2,85,training,85,5,6,1,1,1,0.254318
11,2,86,training,86,11,6,0,0,1,0.408693
11,2,87,training,87,6,1,0,0,1,0.503782
11,2,88,training,88,5,0,0,0,1,0.338740
11,2,89,training,89,6,5,1,1,1,0.775166
11,2,90,training,90,5,6,1,1,1,0.489135
11,2,91,training,91,6,1,0,0,1,0.358468
11,2,92,training,92,5,0,0,0,1,0.553450
11,2,93,training,93,6,5,1,1,1,0.245719
11,2,94,training,94,10,5,0,0,1,0.339520
11,2,95,training,95,5,6,1,1,1,1.119745
11,2,96,training,96,11,6,0,0,1,0.243332
11,2,97,generalization,1,0,2,1,NaN,NaN,4.479307
11,2,98,generalization,2,10,5,0,NaN,NaN,0.493092
11,2,99,generalization,3,1,1,1,NaN,NaN,1.409529
11,2,100,generalization,4,11,11,0,NaN,NaN,1.377852
11,2,101,generalization,5,11,0,1,NaN,NaN,1.107592
11,2,102,generalization,6,9,2,0,NaN,NaN,1.720100
11,2,103,generalization,7,10,9,0,NaN,NaN,3.035014
11,2,104,generalization,8,5,0,0,NaN,NaN,0.904904
11,2,105,generalization,9,10,10,1,NaN,NaN,1.957516
11,2,106,generalization,10,9,10,1,NaN,NaN,0.415854
11,2,107,generalization,11,11,9,1,NaN,NaN,0.431162
11,2,108,generalization,12,1,0,0,NaN,NaN,2.095141
11,2,109,generalization,13,2,11,1,NaN,NaN,0.396666
11,2,110,generalization,14,10,0,1,NaN,NaN,5.093299
11,2,111,generalization,15,9,9,0,NaN,NaN,0.561312
11,2,112,generalization,16,9,11,0,NaN,NaN,0.300003
11,2,113,generalization,17,0,1,1,NaN,NaN,1.176724
11,2,114,generalization,18,2,0,0,NaN,NaN,0.738523
11,2,115,generalization,19,9,1,1,NaN,NaN,1.957794
11,2,116,generalization,20,11,1,0,NaN,NaN,0.912025
11,2,117,generalization,21,10,2,0,NaN,NaN,5.044410
11,2,118,generalization,22,10,11,0,NaN,NaN,3.107448
11,2,119,generalization,23,2,1,1,NaN,NaN,1.110363
11,2,120,generalization,24,1,9,1,NaN,NaN,0.346350
11,2,121,generalization,25,2,2,0,NaN,NaN,0.589742
11,2,122,generalization,26,1,2,0,NaN,NaN,1.519877
11,2,123,generalization,27,0,10,1,NaN,NaN,0.355332
11,2,124,generalization,28,0,11,1,NaN,NaN,0.294044
11,2,125,generalization,29,9,0,0,NaN,NaN,1.546816
11,2,126,generalization,30,2,9,1,NaN,NaN,0.718795
11,2,127,generalization,31,11,6,0,NaN,NaN,3.769658
11,2,128,generalization,32,11,10,1,NaN,NaN,0.666743
11,2,129,generalization,33,0,0,0,NaN,NaN,0.952727
11,2,130,generalization,34,1,11,1,NaN,NaN,0.219356
11,2,131,generalization,35,6,1,0,NaN,NaN,1.370727
11,2,132,generalization,36,10,1,1,NaN,NaN,0.996482
11,2,133,generalization,37,2,10,1,NaN,NaN,0.366618
11,2,134,generalization,38,6,5,1,NaN,NaN,2.288260
11,2,135,generalization,39,5,6,1,NaN,NaN,0.237168
11,2,136,generalization,40,11,2,1,NaN,NaN,1.995967
11,2,137,generalization,41,0,9,1,NaN,NaN,1.812922
11,2,138,generalization,42,1,10,1,NaN,NaN,1.117065
12,2,1,training,1,6,1,0,0,1,5.545051
12,2,2,training,2,5,6,0,1,0,1.261406
12,2,3,training,3,5,6,1,1,1,0.838386
12,2,4,training,4,6,5,1,1,1,0.706447
12,2,5,training,5,5,0,0,0,1,0.455855
12,2,6,training,6,10,5,1,0,0,0.877708
12,2,7,training,7,6,5,1,1,1,0.422374
12,2,8,training,8,11,6,0,0,1,0.528291
12,2,9,training,9,6,5,1,1,1,0.681221
12,2,10,training,10,5,6,1,1,1,0.345831
12,2,11,training,11,6,5,1,1,1,0.299251
12,2,12,training,12,11,6,0,0,1,0.497674
12,2,13,training,13,5,6,1,1,1,0.296093
12,2,14,training,14,5,0,0,0,1,0.262772
12,2,15,training,15,10,5,0,0,1,0.295840
12,2,16,training,16,6,1,0,0,1,0.245528
12,2,17,training,17,5,6,1,1,1,0.323328
12,2,18,training,18,6,1,0,0,1,0.296348
12,2,19,training,19,11,6,0,0,1,0.274891
12,2,20,training,20,6,5,1,1,1,0.298027
12,2,21,training,21,5,0,0,0,1,0.264519
12,2,22,training,22,10,5,0,0,1,0.247134
12,2,23,training,23,5,6,1,1,1,0.339456
12,2,24,training,24,6,5,1,1,1,0.224740
12,2,25,training,25,6,5,1,1,1,0.179712
12,2,26,training,26,10,5,0,0,1,0.256135
12,2,27,training,27,11,6,0,0,1,0.427245
12,2,28,training,28,6,1,0,0,1,0.422081
12,2,29,training,29,5,0,0,0,1,0.229249
12,2,30,training,30,5,6,1,1,1,0.349564
12,2,31,training,31,5,6,1,1,1,2.022654
12,2,32,training,32,6,5,1,1,1,0.584072
12,2,33,training,33,6,1,0,0,1,0.267057
12,2,34,training,34,10,5,0,0,1,0.235438
12,2,35,training,35,6,5,1,1,1,0.265960
12,2,36,training,36,5,6,1,1,1,0.232370
12,2,37,training,37,11,6,0,0,1,0.169479
12,2,38,training,38,6,5,1,1,1,1.249313
12,2,39,training,39,5,6,1,1,1,0.376806
12,2,40,training,40,5,0,0,0,1,0.322618
12,2,41,training,41,10,5,0,0,1,0.230948
12,2,42,training,42,11,6,0,0,1,0.138753
12,2,43,training,43,5,6,1,1,1,0.244286
12,2,44,training,44,5,6,1,1,1,0.105809
12,2,45,training,45,6,5,1,1,1,0.177716
12,2,46,training,46,5,0,0,0,1,0.374936
12,2,47,training,47,6,1,0,0,1,0.175877
12,2,48,training,48,6,5,1,1,1,0.460387
12,2,49,training,49,6,5,1,1,1,0.456892
12,2,50,training,50,10,5,0,0,1,0.244571
12,2,51,training,51,5,6,1,1,1,0.333122
12,2,52,training,52,6,5,1,1,1,0.265542
12,2,53,training,53,5,6,1,1,1,0.278032
12,2,54,training,54,5,0,0,0,1,0.205229
12,2,55,training,55,6,1,0,0,1,0.268307
12,2,56,training,56,11,6,0,0,1,1.040582
12,2,57,training,57,5,0,0,0,1,0.362180
12,2,58,training,58,5,6,1,1,1,0.292647
12,2,59,training,59,6,1,0,0,1,0.621701
12,2,60,training,60,11,6,0,0,1,0.158030
12,2,61,training,61,5,6,1,1,1,0.219952
12,2,62,training,62,6,5,1,1,1,0.247681
12,2,63,training,63,10,5,0,0,1,0.257472
12,2,64,training,64,6,5,1,1,1,0.209377
12,2,65,training,65,5,6,1,1,1,0.264409
12,2,66,training,66,6,5,1,1,1,0.172979
12,2,67,training,67,11,6,0,0,1,0.199504
12,2,68,training,68,5,0,0,0,1,0.194728
12,2,69,training,69,10,5,0,0,1,0.189839
12,2,70,training,70,6,1,0,0,1,0.197612
12,2,71,training,71,6,5,1,1,1,0.281433
12,2,72,training,72,5,6,1,1,1,0.249143
12,2,73,training,73,10,5,0,0,1,0.280200
12,2,74,training,74,5,0,0,0,1,1.992721
12,2,75,training,75,6,5,1,1,1,0.377469
12,2,76,training,76,5,6,1,1,1,0.357938
12,2,77,training,77,6,5,1,1,1,0.251112
12,2,78,training,78,5,6,1,1,1,0.222784
12,2,79,training,79,11,6,0,0,1,0.324039
12,2,80,training,80,6,1,0,0,1,0.588412
12,2,81,training,81,5,0,0,0,1,0.197550
12,2,82,training,82,6,1,0,0,1,0.450168
12,2,83,training,83,6,5,1,1,1,1.713880
12,2,84,training,84,11,6,0,0,1,0.190532
12,2,85,training,85,5,6,1,1,1,0.624326
12,2,86,training,86,6,5,1,1,1,0.236109
12,2,87,training,87,5,6,1,1,1,0.187810
12,2,88,training,88,10,5,0,0,1,0.220289
12,2,89,training,89,6,1,0,0,1,0.807678
12,2,90,training,90,6,5,1,1,1,0.599857
12,2,91,training,91,5,6,1,1,1,0.226693
12,2,92,training,92,6,5,1,1,1,0.133941
12,2,93,training,93,5,6,1,1,1,3.731716
12,2,94,training,94,5,0,0,0,1,0.393207
12,2,95,training,95,10,5,0,0,1,0.537665
12,2,96,training,96,11,6,0,0,1,0.589278
12,2,97,generalization,1,0,10,1,NaN,NaN,0.694325
12,2,98,generalization,2,11,9,0,NaN,NaN,0.387609
12,2,99,generalization,3,0,9,1,NaN,NaN,0.300939
12,2,100,generalization,4,5,0,0,NaN,NaN,0.281762
12,2,101,generalization,5,9,1,1,NaN,NaN,4.670999
12,2,102,generalization,6,11,1,1,NaN,NaN,0.267965
12,2,103,generalization,7,10,0,1,NaN,NaN,0.186039
12,2,104,generalization,8,10,5,0,NaN,NaN,0.979484
12,2,105,generalization,9,11,6,0,NaN,NaN,0.196639
12,2,106,generalization,10,10,11,0,NaN,NaN,0.470074
12,2,107,generalization,11,6,5,1,NaN,NaN,2.060992
12,2,108,generalization,12,9,2,0,NaN,NaN,0.626929
12,2,109,generalization,13,6,1,0,NaN,NaN,1.266888
12,2,110,generalization,14,9,11,0,NaN,NaN,0.808675
12,2,111,generalization,15,2,10,1,NaN,NaN,0.456602
12,2,112,generalization,16,11,2,1,NaN,NaN,0.527359
12,2,113,generalization,17,10,1,1,NaN,NaN,0.370727
12,2,114,generalization,18,9,0,1,NaN,NaN,0.291355
12,2,115,generalization,19,0,0,1,NaN,NaN,4.048773
12,2,116,generalization,20,2,9,1,NaN,NaN,0.599195
12,2,117,generalization,21,2,1,1,NaN,NaN,0.495771
12,2,118,generalization,22,0,1,1,NaN,NaN,0.405069
12,2,119,generalization,23,10,9,0,NaN,NaN,0.373774
12,2,120,generalization,24,10,2,1,NaN,NaN,0.855858
12,2,121,generalization,25,0,2,1,NaN,NaN,0.438504
12,2,122,generalization,26,1,9,1,NaN,NaN,2.869747
12,2,123,generalization,27,10,10,0,NaN,NaN,0.459024
12,2,124,generalization,28,5,6,0,NaN,NaN,1.393778
12,2,125,generalization,29,2,11,1,NaN,NaN,0.298857
12,2,126,generalization,30,1,0,1,NaN,NaN,1.526962
12,2,127,generalization,31,11,10,0,NaN,NaN,0.850685
12,2,128,generalization,32,11,11,0,NaN,NaN,0.938183
12,2,129,generalization,33,11,0,1,NaN,NaN,2.924353
12,2,130,generalization,34,1,2,0,NaN,NaN,1.239637
12,2,131,generalization,35,2,2,0,NaN,NaN,0.286128
12,2,132,generalization,36,1,11,1,NaN,NaN,0.292429
12,2,133,generalization,37,9,9,0,NaN,NaN,0.217617
12,2,134,generalization,38,9,10,0,NaN,NaN,0.417839
12,2,135,generalization,39,0,11,1,NaN,NaN,1.657758
12,2,136,generalization,40,1,10,1,NaN,NaN,0.199433
12,2,137,generalization,41,2,0,0,NaN,NaN,1.032157
12,2,138,generalization,42,1,1,0,NaN,NaN,0.175404
13,1,1,training,1,6,1,1,0,0,2.798134
13,1,2,training,2,6,5,0,1,0,1.368870
13,1,3,training,3,10,5,1,0,0,0.886430
13,1,4,training,4,5,6,1,1,1,1.739627
13,1,5,training,5,6,5,1,1,1,0.655304
13,1,6,training,6,5,6,1,1,1,0.340247
13,1,7,training,7,5,0,0,0,1,0.877231
13,1,8,training,8,11,6,1,0,0,2.741963
13,1,9,training,9,6,5,0,1,0,1.049329
13,1,10,training,10,11,6,0,0,1,0.986200
13,1,11,training,11,6,5,1,1,1,1.071819
13,1,12,training,12,5,6,1,1,1,0.285382
13,1,13,training,13,6,1,0,0,1,0.339634
13,1,14,training,14,5,0,0,0,1,0.281362
13,1,15,training,15,5,6,1,1,1,0.256416
13,1,16,training,16,10,5,0,0,1,2.409547
13,1,17,training,17,5,0,0,0,1,0.304038
13,1,18,training,18,6,5,1,1,1,0.367313
13,1,19,training,19,11,6,0,0,1,0.427889
13,1,20,training,20,5,6,1,1,1,0.213550
13,1,21,training,21,6,5,1,1,1,0.243288
13,1,22,training,22,10,5,0,0,1,0.285100
13,1,23,training,23,5,6,1,1,1,0.210843
13,1,24,training,24,6,1,0,0,1,0.230241
13,1,25,training,25,10,5,0,0,1,0.689023
13,1,26,training,26,5,6,1,1,1,0.209802
13,1,27,training,27,5,6,1,1,1,0.205270
13,1,28,training,28,11,6,0,0,1,0.219663
13,1,29,training,29,6,1,0,0,1,0.159199
13,1,30,training,30,5,0,0,0,1,0.209504
13,1,31,training,31,6,5,1,1,1,0.292742
13,1,32,training,32,6,5,1,1,1,0.209637
13,1,33,training,33,5,0,0,0,1,0.163508
13,1,34,training,34,5,6,1,1,1,0.263548
13,1,35,training,35,10,5,0,0,1,0.249444
13,1,36,training,36,6,5,1,1,1,0.137071
13,1,37,training,37,6,1,0,0,1,0.565657
13,1,38,training,38,11,6,0,0,1,0.289465
13,1,39,training,39,5,6,1,1,1,0.142610
13,1,40,training,40,6,5,1,1,1,0.212443
13,1,41,training,41,5,6,1,1,1,0.119756
13,1,42,training,42,6,1,0,0,1,0.230277
13,1,43,training,43,10,5,0,0,1,0.264616
13,1,44,training,44,6,5,1,1,1,0.168943
13,1,45,training,45,11,6,0,0,1,0.131596
13,1,46,training,46,5,6,1,1,1,0.464765
13,1,47,training,47,5,0,0,0,1,0.183170
13,1,48,training,48,6,5,1,1,1,0.175718
13,1,49,training,49,5,6,1,1,1,0.242981
13,1,50,training,50,5,6,1,1,1,0.210153
13,1,51,training,51,5,0,0,0,1,0.213297
13,1,52,training,52,6,1,0,0,1,0.237123
13,1,53,training,53,6,5,1,1,1,0.223018
13,1,54,training,54,11,6,0,0,1,0.543505
13,1,55,training,55,6,5,1,1,1,0.225336
13,1,56,training,56,10,5,0,0,1,0.209894
13,1,57,training,57,6,5,1,1,1,0.243103
13,1,58,training,58,11,6,0,0,1,0.236245
13,1,59,training,59,5,6,1,1,1,0.429496
13,1,60,training,60,6,1,0,0,1,0.198021
13,1,61,training,61,5,0,0,0,1,0.109732
13,1,62,training,62,6,5,1,1,1,0.204318
13,1,63,training,63,5,6,1,1,1,0.187609
13,1,64,training,64,10,5,0,0,1,0.215380
13,1,65,training,65,6,1,1,0,0,0.245920
13,1,66,training,66,10,5,1,0,0,1.849173
13,1,67,training,67,5,6,1,1,1,0.097797
13,1,68,training,68,5,6,1,1,1,0.156793
13,1,69,training,69,5,0,0,0,1,0.127356
13,1,70,training,70,11,6,0,0,1,0.187148
13,1,71,training,71,6,5,1,1,1,0.223562
13,1,72,training,72,6,5,1,1,1,0.032057
13,1,73,training,73,10,5,0,0,1,0.357042
13,1,74,training,74,6,5,1,1,1,0.144876
13,1,75,training,75,6,1,0,0,1,0.198831
13,1,76,training,76,5,0,0,0,1,0.024127
13,1,77,training,77,5,6,1,1,1,0.135322
13,1,78,training,78,11,6,0,0,1,0.963175
13,1,79,training,79,5,6,1,1,1,0.207588
13,1,80,training,80,6,5,1,1,1,0.632709
13,1,81,training,81,5,0,0,0,1,0.191019
13,1,82,training,82,6,1,0,0,1,0.210319
13,1,83,training,83,11,6,0,0,1,0.160753
13,1,84,training,84,6,5,1,1,1,0.213360
13,1,85,training,85,10,5,0,0,1,0.183237
13,1,86,training,86,5,6,1,1,1,0.161738
13,1,87,training,87,5,6,1,1,1,0.126362
13,1,88,training,88,6,5,1,1,1,0.041573
13,1,89,training,89,10,5,0,0,1,0.184745
13,1,90,training,90,11,6,0,0,1,0.003378
13,1,91,training,91,6,5,1,1,1,0.206574
13,1,92,training,92,6,5,1,1,1,0.673051
13,1,93,training,93,6,1,0,0,1,0.152156
13,1,94,training,94,5,6,1,1,1,0.098595
13,1,95,training,95,5,6,1,1,1,0.009276
13,1,96,training,96,5,0,0,0,1,0.161187
13,1,97,generalization,1,9,2,0,NaN,NaN,0.716467
13,1,98,generalization,2,10,5,0,NaN,NaN,0.248424
13,1,99,generalization,3,10,0,0,NaN,NaN,0.038725
13,1,100,generalization,4,10,11,1,NaN,NaN,1.086045
13,1,101,generalization,5,1,10,1,NaN,NaN,0.371288
13,1,102,generalization,6,9,1,0,NaN,NaN,0.205266
13,1,103,generalization,7,2,10,1,NaN,NaN,0.277357
13,1,104,generalization,8,5,6,1,NaN,NaN,1.171447
13,1,105,generalization,9,1,11,1,NaN,NaN,1.741307
13,1,106,generalization,10,10,10,0,NaN,NaN,1.752129
13,1,107,generalization,11,11,6,0,NaN,NaN,0.194513
13,1,108,generalization,12,2,11,1,NaN,NaN,0.195978
13,1,109,generalization,13,1,1,0,NaN,NaN,0.237424
13,1,110,generalization,14,10,9,0,NaN,NaN,0.716185
13,1,111,generalization,15,9,9,0,NaN,NaN,0.304232
13,1,112,generalization,16,2,9,1,NaN,NaN,0.188838
13,1,113,generalization,17,11,2,0,NaN,NaN,0.238289
13,1,114,generalization,18,0,11,1,NaN,NaN,0.269832
13,1,115,generalization,19,1,2,0,NaN,NaN,0.267805
13,1,116,generalization,20,1,9,1,NaN,NaN,0.217963
13,1,117,generalization,21,9,11,0,NaN,NaN,0.241983
13,1,118,generalization,22,10,2,0,NaN,NaN,0.249564
13,1,119,generalization,23,2,1,0,NaN,NaN,0.368205
13,1,120,generalization,24,9,0,0,NaN,NaN,0.209654
13,1,121,generalization,25,0,0,0,NaN,NaN,0.002410
13,1,122,generalization,26,6,1,0,NaN,NaN,0.034512
13,1,123,generalization,27,10,1,0,NaN,NaN,0.090084
13,1,124,generalization,28,5,0,0,NaN,NaN,0.039533
13,1,125,generalization,29,0,2,0,NaN,NaN,0.038309
13,1,126,generalization,30,6,5,0,NaN,NaN,1.557966
13,1,127,generalization,31,0,10,1,NaN,NaN,0.208238
13,1,128,generalization,32,0,1,0,NaN,NaN,0.209072
13,1,129,generalization,33,11,1,0,NaN,NaN,0.097190
13,1,130,generalization,34,11,10,0,NaN,NaN,0.093919
13,1,131,generalization,35,11,0,0,NaN,NaN,0.059404
13,1,132,generalization,36,2,0,0,NaN,NaN,0.162207
13,1,133,generalization,37,11,11,0,NaN,NaN,0.061101
13,1,134,generalization,38,1,0,0,NaN,NaN,0.000134
13,1,135,generalization,39,0,9,0,NaN,NaN,0.000157
13,1,136,generalization,40,2,2,0,NaN,NaN,0.101646
13,1,137,generalization,41,11,9,0,NaN,NaN,0.249756
13,1,138,generalization,42,9,10,0,NaN,NaN,0.104435
14,1,1,training,1,6,1,0,0,1,10.367494
14,1,2,training,2,5,6,0,1,0,4.558038
14,1,3,training,3,5,6,1,1,1,1.239546
14,1,4,training,4,11,6,1,0,0,1.751907
14,1,5,training,5,10,5,0,0,1,1.675837
14,1,6,training,6,5,0,0,0,1,3.219712
14,1,7,training,7,6,5,1,1,1,0.568982
14,1,8,training,8,6,5,1,1,1,2.389288
14,1,9,training,9,6,5,1,1,1,0.712263
14,1,10,training,10,6,1,0,0,1,0.647887
14,1,11,training,11,10,5,0,0,1,2.682191
14,1,12,training,12,5,0,0,0,1,0.383819
14,1,13,training,13,5,6,1,1,1,0.443824
14,1,14,training,14,5,6,1,1,1,0.336811
14,1,15,training,15,6,5,1,1,1,0.937134
14,1,16,training,16,11,6,0,0,1,0.581276
14,1,17,training,17,5,6,1,1,1,0.384396
14,1,18,training,18,6,1,0,0,1,0.411439
14,1,19,training,19,6,5,1,1,1,0.604590
14,1,20,training,20,5,0,0,0,1,0.350329
14,1,21,training,21,5,6,1,1,1,0.368698
14,1,22,training,22,10,5,0,0,1,0.427784
14,1,23,training,23,6,5,1,1,1,1.256152
14,1,24,training,24,11,6,0,0,1,0.466313
14,1,25,training,25,10,5,0,0,1,0.922653
14,1,26,training,26,11,6,0,0,1,0.349261
14,1,27,training,27,5,6,1,1,1,0.460389
14,1,28,training,28,5,0,0,0,1,0.408675
14,1,29,training,29,5,6,1,1,1,2.392987
14,1,30,training,30,6,5,1,1,1,0.476120
14,1,31,training,31,6,1,0,0,1,0.300382
14,1,32,training,32,6,5,1,1,1,0.970094
14,1,33,training,33,5,0,0,0,1,0.393647
14,1,34,training,34,6,5,1,1,1,0.285413
14,1,35,training,35,5,6,1,1,1,0.270471
14,1,36,training,36,11,6,0,0,1,0.348930
14,1,37,training,37,10,5,0,0,1,0.321316
14,1,38,training,38,6,1,0,0,1,0.310339
14,1,39,training,39,6,5,1,1,1,0.633480
14,1,40,training,40,5,6,1,1,1,0.225063
14,1,41,training,41,6,1,0,0,1,0.780138
14,1,42,training,42,6,5,1,1,1,0.370451
14,1,43,training,43,10,5,0,0,1,0.358184
14,1,44,training,44,11,6,0,0,1,0.305935
14,1,45,training,45,6,5,1,1,1,0.486327
14,1,46,training,46,5,0,0,0,1,0.318103
14,1,47,training,47,5,6,1,1,1,0.426599
14,1,48,training,48,5,6,1,1,1,0.301032
14,1,49,training,49,5,0,0,0,1,0.346033
14,1,50,training,50,10,5,0,0,1,0.288063
14,1,51,training,51,6,5,1,1,1,0.464663
14,1,52,training,52,6,1,0,0,1,0.261400
14,1,53,training,53,5,6,1,1,1,0.300486
14,1,54,training,54,5,6,1,1,1,0.338218
14,1,55,training,55,6,5,1,1,1,0.596072
14,1,56,training,56,11,6,0,0,1,0.443716
14,1,57,training,57,11,6,0,0,1,0.549412
14,1,58,training,58,5,6,1,1,1,0.335062
14,1,59,training,59,6,5,1,1,1,0.900179
14,1,60,training,60,10,5,0,0,1,0.739073
14,1,61,training,61,5,0,0,0,1,0.288608
14,1,62,training,62,6,5,1,1,1,0.393737
14,1,63,training,63,6,1,0,0,1,0.293504
14,1,64,training,64,5,6,1,1,1,0.244707
14,1,65,training,65,5,6,1,1,1,0.358720
14,1,66,training,66,6,5,1,1,1,0.252735
14,1,67,training,67,6,5,1,1,1,0.446172
14,1,68,training,68,10,5,0,0,1,0.416084
14,1,69,training,69,6,1,0,0,1,0.296987
14,1,70,training,70,11,6,0,0,1,0.768087
14,1,71,training,71,5,0,0,0,1,0.405778
14,1,72,training,72,5,6,1,1,1,0.416040
14,1,73,training,73,5,6,1,1,1,0.233961
14,1,74,training,74,6,1,0,0,1,0.450286
14,1,75,training,75,5,6,1,1,1,0.216740
14,1,76,training,76,10,5,0,0,1,0.224500
14,1,77,training,77,11,6,0,0,1,0.216368
14,1,78,training,78,6,5,1,1,1,0.272823
14,1,79,training,79,5,0,0,0,1,0.207979
14,1,80,training,80,6,5,1,1,1,0.267166
14,1,81,training,81,5,6,1,1,1,0.226279
14,1,82,training,82,6,5,1,1,1,0.201427
14,1,83,training,83,6,5,1,1,1,0.207062
14,1,84,training,84,5,0,0,0,1,0.233702
14,1,85,training,85,11,6,0,0,1,0.276325
14,1,86,training,86,10,5,0,0,1,0.187700
14,1,87,training,87,5,6,1,1,1,0.198128
14,1,88,training,88,6,1,0,0,1,0.230037
14,1,89,training,89,5,0,0,0,1,0.205742
14,1,90,training,90,11,6,0,0,1,0.183560
14,1,91,training,91,6,1,0,0,1,0.208073
14,1,92,training,92,5,6,1,1,1,0.231172
14,1,93,training,93,6,5,1,1,1,0.232651
14,1,94,training,94,10,5,0,0,1,0.448896
14,1,95,training,95,5,6,1,1,1,0.315878
14,1,96,training,96,6,5,1,1,1,3.473503
14,1,97,generalization,1,2,9,1,NaN,NaN,4.476286
14,1,98,generalization,2,1,10,1,NaN,NaN,0.488486
14,1,99,generalization,3,11,11,0,NaN,NaN,0.805886
14,1,100,generalization,4,10,2,0,NaN,NaN,0.278513
14,1,101,generalization,5,1,2,0,NaN,NaN,4.868398
14,1,102,generalization,6,9,2,0,NaN,NaN,1.017210
14,1,103,generalization,7,11,10,0,NaN,NaN,1.816392
14,1,104,generalization,8,11,9,0,NaN,NaN,0.423366
14,1,105,generalization,9,11,1,0,NaN,NaN,3.023383
14,1,106,generalization,10,10,0,0,NaN,NaN,0.230620
14,1,107,generalization,11,1,0,0,NaN,NaN,0.782797
14,1,108,generalization,12,0,0,0,NaN,NaN,0.280046
14,1,109,generalization,13,9,1,0,NaN,NaN,0.654088
14,1,110,generalization,14,2,11,1,NaN,NaN,0.564705
14,1,111,generalization,15,6,1,0,NaN,NaN,0.302664
14,1,112,generalization,16,0,9,1,NaN,NaN,0.259466
14,1,113,generalization,17,2,1,0,NaN,NaN,0.826201
14,1,114,generalization,18,0,1,0,NaN,NaN,0.874131
14,1,115,generalization,19,1,9,1,NaN,NaN,0.616139
14,1,116,generalization,20,10,5,0,NaN,NaN,0.343998
14,1,117,generalization,21,2,2,0,NaN,NaN,1.523417
14,1,118,generalization,22,11,0,0,NaN,NaN,0.407125
14,1,119,generalization,23,11,2,0,NaN,NaN,0.191880
14,1,120,generalization,24,5,6,1,NaN,NaN,0.825298
14,1,121,generalization,25,10,11,0,NaN,NaN,0.449304
14,1,122,generalization,26,10,10,0,NaN,NaN,0.216006
14,1,123,generalization,27,1,1,0,NaN,NaN,0.223331
14,1,124,generalization,28,0,10,1,NaN,NaN,1.007460
14,1,125,generalization,29,9,0,0,NaN,NaN,0.247290
14,1,126,generalization,30,5,0,0,NaN,NaN,0.366757
14,1,127,generalization,31,6,5,1,NaN,NaN,2.264724
14,1,128,generalization,32,0,2,0,NaN,NaN,0.558918
14,1,129,generalization,33,1,11,1,NaN,NaN,0.664839
14,1,130,generalization,34,2,10,1,NaN,NaN,0.214874
14,1,131,generalization,35,10,9,0,NaN,NaN,0.742939
14,1,132,generalization,36,9,11,0,NaN,NaN,0.240911
14,1,133,generalization,37,0,11,1,NaN,NaN,0.312332
14,1,134,generalization,38,10,1,0,NaN,NaN,0.213245
14,1,135,generalization,39,2,0,0,NaN,NaN,1.061979
14,1,136,generalization,40,9,9,0,NaN,NaN,0.292345
14,1,137,generalization,41,11,6,0,NaN,NaN,0.201229
14,1,138,generalization,42,9,10,0,NaN,NaN,0.321917
15,0,1,training,1,11,6,0,0,1,2.272695
15,0,2,training,2,5,6,0,1,0,2.765225
15,0,3,training,3,6,5,1,1,1,1.693842
15,0,4,training,4,6,5,1,1,1,0.793087
15,0,5,training,5,5,6,1,1,1,1.659127
15,0,6,training,6,5,0,1,0,0,1.032251
15,0,7,training,7,6,1,1,0,0,0.801018
15,0,8,training,8,10,5,0,0,1,0.592350
15,0,9,training,9,5,0,0,0,1,0.705963
15,0,10,training,10,5,6,1,1,1,1.477428
15,0,11,training,11,6,1,0,0,1,1.175978
15,0,12,training,12,6,5,1,1,1,0.525268
15,0,13,training,13,11,6,0,0,1,1.844594
15,0,14,training,14,5,6,0,1,0,0.826422
15,0,15,training,15,6,5,0,1,0,1.503131
15,0,16,training,16,10,5,0,0,1,0.437722
15,0,17,training,17,6,5,1,1,1,0.578600
15,0,18,training,18,5,6,0,1,0,2.735970
15,0,19,training,19,6,5,1,1,1,0.786223
15,0,20,training,20,11,6,0,0,1,0.510342
15,0,21,training,21,6,1,1,0,0,0.868559
15,0,22,training,22,10,5,0,0,1,0.560558
15,0,23,training,23,5,6,0,1,0,2.234407
15,0,24,training,24,5,0,1,0,0,0.718868
15,0,25,training,25,5,0,0,0,1,1.001253
15,0,26,training,26,11,6,0,0,1,0.377426
15,0,27,training,27,10,5,0,0,1,2.122234
15,0,28,training,28,5,6,1,1,1,2.447857
15,0,29,training,29,5,6,1,1,1,0.301600
15,0,30,training,30,6,5,1,1,1,0.377866
15,0,31,training,31,6,1,1,0,0,0.809726
15,0,32,training,32,6,5,0,1,0,0.804129
15,0,33,training,33,6,5,1,1,1,0.476891
15,0,34,training,34,11,6,0,0,1,0.779423
15,0,35,training,35,5,6,1,1,1,1.144507
15,0,36,training,36,5,6,1,1,1,0.469176
15,0,37,training,37,6,1,0,0,1,1.623726
15,0,38,training,38,5,0,0,0,1,0.752753
15,0,39,training,39,6,5,1,1,1,3.438867
15,0,40,training,40,10,5,0,0,1,0.792257
15,0,41,training,41,5,0,0,0,1,1.600361
15,0,42,training,42,6,5,1,1,1,1.319682
15,0,43,training,43,6,1,0,0,1,0.694385
15,0,44,training,44,6,5,0,1,0,0.576678
15,0,45,training,45,11,6,0,0,1,0.265584
15,0,46,training,46,10,5,0,0,1,0.263461
15,0,47,training,47,5,6,1,1,1,0.983547
15,0,48,training,48,5,6,1,1,1,0.363024
15,0,49,training,49,6,5,1,1,1,0.706613
15,0,50,training,50,6,1,0,0,1,0.775495
15,0,51,training,51,5,0,0,0,1,0.486364
15,0,52,training,52,5,6,1,1,1,2.491968
15,0,53,training,53,6,5,1,1,1,1.219579
15,0,54,training,54,10,5,0,0,1,0.560148
15,0,55,training,55,11,6,0,0,1,0.247296
15,0,56,training,56,5,6,1,1,1,0.955071
15,0,57,training,57,5,6,1,1,1,0.569811
15,0,58,training,58,10,5,0,0,1,0.598756
15,0,59,training,59,6,5,1,1,1,0.472945
15,0,60,training,60,11,6,0,0,1,0.419137
15,0,61,training,61,6,5,1,1,1,1.180285
15,0,62,training,62,6,1,0,0,1,0.533712
15,0,63,training,63,5,0,0,0,1,0.474083
15,0,64,training,64,5,6,1,1,1,0.440955
15,0,65,training,65,11,6,0,0,1,1.041960
15,0,66,training,66,5,6,1,1,1,1.996031
15,0,67,training,67,6,5,1,1,1,0.848549
15,0,68,training,68,5,6,1,1,1,7.397152
15,0,69,training,69,6,1,0,0,1,0.279408
15,0,70,training,70,6,5,1,1,1,0.973087
15,0,71,training,71,10,5,0,0,1,0.605913
15,0,72,training,72,5,0,0,0,1,1.448824
15,0,73,training,73,11,6,0,0,1,0.288259
15,0,74,training,74,6,1,1,0,0,1.786017
15,0,75,training,75,5,0,1,0,0,0.439055
15,0,76,training,76,5,6,1,1,1,0.849964
15,0,77,training,77,6,5,1,1,1,0.122833
15,0,78,training,78,10,5,0,0,1,0.677923
15,0,79,training,79,6,5,1,1,1,0.528341
15,0,80,training,80,5,6,1,1,1,0.633316
15,0,81,training,81,5,0,0,0,1,1.922881
15,0,82,training,82,5,6,1,1,1,1.081270
15,0,83,training,83,10,5,0,0,1,0.715280
15,0,84,training,84,6,5,0,1,0,1.914849
15,0,85,training,85,6,1,1,0,0,1.476107
15,0,86,training,86,5,6,0,1,0,0.431499
15,0,87,training,87,6,5,1,1,1,0.387017
15,0,88,training,88,11,6,0,0,1,0.453417
15,0,89,training,89,11,6,0,0,1,0.183043
15,0,90,training,90,5,0,0,0,1,1.097441
15,0,91,training,91,5,6,1,1,1,1.096158
15,0,92,training,92,10,5,0,0,1,0.297759
15,0,93,training,93,6,5,0,1,0,1.842767
15,0,94,training,94,6,5,1,1,1,0.591397
15,0,95,training,95,5,6,1,1,1,0.387680
15,0,96,training,96,6,1,0,0,1,0.468776
15,0,97,generalization,1,9,10,0,NaN,NaN,3.245259
15,0,98,generalization,2,2,1,0,NaN,NaN,2.987039
15,0,99,generalization,3,0,9,1,NaN,NaN,1.076647
15,0,100,generalization,4,11,1,0,NaN,NaN,1.338140
15,0,101,generalization,5,6,1,1,NaN,NaN,6.125181
15,0,102,generalization,6,11,9,0,NaN,NaN,0.879487
15,0,103,generalization,7,6,5,1,NaN,NaN,2.533423
15,0,104,generalization,8,1,2,0,NaN,NaN,2.215521
15,0,105,generalization,9,11,10,0,NaN,NaN,0.543935
15,0,106,generalization,10,10,1,0,NaN,NaN,0.275017
15,0,107,generalization,11,2,10,1,NaN,NaN,1.065111
15,0,108,generalization,12,2,2,1,NaN,NaN,0.447902
15,0,109,generalization,13,0,10,1,NaN,NaN,2.742304
15,0,110,generalization,14,0,11,1,NaN,NaN,0.409940
15,0,111,generalization,15,9,0,0,NaN,NaN,0.531176
15,0,112,generalization,16,1,0,0,NaN,NaN,1.174973
15,0,113,generalization,17,9,1,0,NaN,NaN,1.600804
15,0,114,generalization,18,0,0,0,NaN,NaN,2.585130
15,0,115,generalization,19,1,10,1,NaN,NaN,0.521944
15,0,116,generalization,20,11,11,0,NaN,NaN,0.645842
15,0,117,generalization,21,2,0,0,NaN,NaN,1.589131
15,0,118,generalization,22,9,2,0,NaN,NaN,0.494212
15,0,119,generalization,23,11,2,0,NaN,NaN,1.459656
15,0,120,generalization,24,2,11,1,NaN,NaN,3.545862
15,0,121,generalization,25,9,9,0,NaN,NaN,0.852384
15,0,122,generalization,26,10,2,0,NaN,NaN,2.714936
15,0,123,generalization,27,5,6,1,NaN,NaN,1.422920
15,0,124,generalization,28,11,6,0,NaN,NaN,0.638652
15,0,125,generalization,29,11,0,0,NaN,NaN,0.309948
15,0,126,generalization,30,10,5,0,NaN,NaN,0.722756
15,0,127,generalization,31,1,9,1,NaN,NaN,0.790665
15,0,128,generalization,32,9,11,1,NaN,NaN,8.135029
15,0,129,generalization,33,5,0,0,NaN,NaN,2.087494
15,0,130,generalization,34,10,9,0,NaN,NaN,9.092223
15,0,131,generalization,35,0,2,1,NaN,NaN,0.765626
15,0,132,generalization,36,10,10,0,NaN,NaN,0.871997
15,0,133,generalization,37,1,1,0,NaN,NaN,1.909477
15,0,134,generalization,38,10,0,0,NaN,NaN,1.273727
15,0,135,generalization,39,1,11,0,NaN,NaN,2.871623
15,0,136,generalization,40,2,9,1,NaN,NaN,0.860194
15,0,137,generalization,41,0,1,0,NaN,NaN,0.842054
15,0,138,generalization,42,10,11,0,NaN,NaN,0.816556
16,3,1,training,1,5,6,0,1,0,3.299855
16,3,2,training,2,6,5,1,1,1,1.166305
16,3,3,training,3,5,0,0,0,1,0.902959
16,3,4,training,4,6,1,0,0,1,0.793475
16,3,5,training,5,10,5,1,0,0,0.426654
16,3,6,training,6,6,5,1,1,1,0.501093
16,3,7,training,7,11,6,0,0,1,0.803714
16,3,8,training,8,5,6,1,1,1,0.632158
16,3,9,training,9,5,0,0,0,1,0.691422
16,3,10,training,10,6,5,1,1,1,0.426482
16,3,11,training,11,5,6,0,1,0,0.491613
16,3,12,training,12,6,5,1,1,1,0.451985
16,3,13,training,13,10,5,0,0,1,0.399679
16,3,14,training,14,5,6,1,1,1,0.441910
16,3,15,training,15,11,6,0,0,1,0.393095
16,3,16,training,16,6,1,0,0,1,0.753799
16,3,17,training,17,6,5,1,1,1,1.097575
16,3,18,training,18,6,5,1,1,1,0.300825
16,3,19,training,19,6,1,0,0,1,0.460423
16,3,20,training,20,5,6,1,1,1,0.357146
16,3,21,training,21,11,6,0,0,1,0.709182
16,3,22,training,22,5,0,0,0,1,0.691255
16,3,23,training,23,5,6,1,1,1,0.456823
16,3,24,training,24,10,5,0,0,1,0.534680
16,3,25,training,25,5,6,1,1,1,0.325990
16,3,26,training,26,5,0,0,0,1,0.514349
16,3,27,training,27,11,6,0,0,1,0.740858
16,3,28,training,28,6,5,1,1,1,0.414491
16,3,29,training,29,6,5,1,1,1,0.306818
16,3,30,training,30,10,5,0,0,1,0.254991
16,3,31,training,31,6,1,0,0,1,0.715687
16,3,32,training,32,5,6,1,1,1,0.254980
16,3,33,training,33,5,0,0,0,1,0.400221
16,3,34,training,34,5,6,1,1,1,0.219045
16,3,35,training,35,10,5,0,0,1,2.083315
16,3,36,training,36,5,6,1,1,1,0.303843
16,3,37,training,37,6,5,1,1,1,0.866333
16,3,38,training,38,6,1,0,0,1,0.827740
16,3,39,training,39,6,5,1,1,1,0.661113
16,3,40,training,40,11,6,0,0,1,0.361684
16,3,41,training,41,5,0,0,0,1,0.750143
16,3,42,training,42,5,6,1,1,1,0.219575
16,3,43,training,43,6,5,1,1,1,1.420662
16,3,44,training,44,6,5,1,1,1,0.302463
16,3,45,training,45,10,5,0,0,1,0.576750
16,3,46,training,46,6,1,0,0,1,0.501281
16,3,47,training,47,11,6,0,0,1,0.332622
16,3,48,training,48,5,6,1,1,1,0.277853
16,3,49,training,49,10,5,0,0,1,0.917878
16,3,50,training,50,5,0,1,0,0,0.328352
16,3,51,training,51,6,1,0,0,1,0.446420
16,3,52,training,52,11,6,0,0,1,0.329364
16,3,53,training,53,6,5,1,1,1,0.277808
16,3,54,training,54,6,5,1,1,1,0.225957
16,3,55,training,55,5,6,1,1,1,0.203934
16,3,56,training,56,5,6,1,1,1,0.212072
16,3,57,training,57,5,6,1,1,1,0.225321
16,3,58,training,58,10,5,0,0,1,0.289606
16,3,59,training,59,5,6,1,1,1,0.231472
16,3,60,training,60,5,0,0,0,1,0.962686
16,3,61,training,61,11,6,0,0,1,0.331214
16,3,62,training,62,6,5,1,1,1,0.228109
16,3,63,training,63,6,1,0,0,1,0.601122
16,3,64,training,64,6,5,1,1,1,0.218909
16,3,65,training,65,5,6,1,1,1,0.213105
16,3,66,training,66,11,6,0,0,1,0.287543
16,3,67,training,67,6,5,1,1,1,0.263988
16,3,68,training,68,5,6,1,1,1,0.296600
16,3,69,training,69,5,0,0,0,1,0.361884
16,3,70,training,70,6,5,1,1,1,0.355401
16,3,71,training,71,6,1,0,0,1,0.691696
16,3,72,training,72,10,5,0,0,1,0.352099
16,3,73,training,73,5,0,1,0,0,0.122517
16,3,74,training,74,11,6,0,0,1,0.424396
16,3,75,training,75,6,1,0,0,1,0.198894
16,3,76,training,76,6,5,1,1,1,0.386947
16,3,77,training,77,6,5,1,1,1,0.956747
16,3,78,training,78,5,6,1,1,1,0.947419
16,3,79,training,79,5,6,1,1,1,0.077245
16,3,80,training,80,10,5,0,0,1,0.512247
16,3,81,training,81,5,6,1,1,1,0.125092
16,3,82,training,82,10,5,0,0,1,0.312825
16,3,83,training,83,6,5,1,1,1,0.056924
16,3,84,training,84,11,6,0,0,1,0.603617
16,3,85,training,85,5,6,1,1,1,4.120715
16,3,86,training,86,5,0,0,0,1,0.756979
16,3,87,training,87,6,5,1,1,1,0.387305
16,3,88,training,88,6,1,0,0,1,0.372936
16,3,89,training,89,6,1,0,0,1,0.520417
16,3,90,training,90,5,6,1,1,1,0.438866
16,3,91,training,91,5,6,1,1,1,1.827980
16,3,92,training,92,10,5,0,0,1,1.960427
16,3,93,training,93,11,6,0,0,1,3.093789
16,3,94,training,94,6,5,1,1,1,4.049514
16,3,95,training,95,6,5,1,1,1,2.658771
16,3,96,training,96,5,0,0,0,1,0.562579
16,3,97,generalization,1,10,0,0,NaN,NaN,3.658513
16,3,98,generalization,2,10,5,0,NaN,NaN,1.281251
16,3,99,generalization,3,2,0,0,NaN,NaN,0.723294
16,3,100,generalization,4,0,11,1,NaN,NaN,3.246453
16,3,101,generalization,5,2,9,1,NaN,NaN,0.602424
16,3,102,generalization,6,9,2,0,NaN,NaN,4.025603
16,3,103,generalization,7,9,10,1,NaN,NaN,0.393721
16,3,104,generalization,8,2,10,1,NaN,NaN,1.044603
16,3,105,generalization,9,10,10,0,NaN,NaN,0.245907
16,3,106,generalization,10,11,6,0,NaN,NaN,0.726986
16,3,107,generalization,11,1,1,1,NaN,NaN,0.616330
16,3,108,generalization,12,11,11,0,NaN,NaN,1.442936
16,3,109,generalization,13,11,0,1,NaN,NaN,3.824392
16,3,110,generalization,14,10,11,0,NaN,NaN,0.563149
16,3,111,generalization,15,2,11,1,NaN,NaN,0.754423
16,3,112,generalization,16,0,2,0,NaN,NaN,0.622390
16,3,113,generalization,17,9,0,1,NaN,NaN,1.799045
16,3,114,generalization,18,1,9,1,NaN,NaN,0.397899
16,3,115,generalization,19,10,1,1,NaN,NaN,1.321010
16,3,116,generalization,20,11,9,0,NaN,NaN,3.393523
16,3,117,generalization,21,2,1,0,NaN,NaN,0.891486
16,3,118,generalization,22,0,10,1,NaN,NaN,1.040649
16,3,119,generalization,23,5,6,1,NaN,NaN,3.515917
16,3,120,generalization,24,9,1,1,NaN,NaN,1.337412
16,3,121,generalization,25,11,2,1,NaN,NaN,0.402362
16,3,122,generalization,26,0,9,1,NaN,NaN,0.631275
16,3,123,generalization,27,6,5,0,NaN,NaN,1.798206
16,3,124,generalization,28,11,10,0,NaN,NaN,0.580971
16,3,125,generalization,29,1,10,1,NaN,NaN,0.692633
16,3,126,generalization,30,10,9,0,NaN,NaN,0.376831
16,3,127,generalization,31,9,11,0,NaN,NaN,0.672995
16,3,128,generalization,32,1,0,0,NaN,NaN,1.220740
16,3,129,generalization,33,2,2,0,NaN,NaN,0.244841
16,3,130,generalization,34,0,0,0,NaN,NaN,0.268000
16,3,131,generalization,35,5,0,0,NaN,NaN,0.219506
16,3,132,generalization,36,11,1,1,NaN,NaN,0.353883
16,3,133,generalization,37,1,11,1,NaN,NaN,0.497564
16,3,134,generalization,38,1,2,1,NaN,NaN,0.807142
16,3,135,generalization,39,10,2,0,NaN,NaN,0.876476
16,3,136,generalization,40,0,1,1,NaN,NaN,0.949419
16,3,137,generalization,41,9,9,0,NaN,NaN,0.566555
16,3,138,generalization,42,6,1,0,NaN,NaN,1.133810
17,4,1,training,1,11,6,0,0,1,34.495798
17,4,2,training,2,6,5,0,1,0,1.627477
17,4,3,training,3,5,6,1,1,1,1.385795
17,4,4,training,4,5,0,1,0,0,0.933049
17,4,5,training,5,10,5,0,0,1,0.566463
17,4,6,training,6,6,1,0,0,1,0.589746
17,4,7,training,7,6,5,1,1,1,1.005312
17,4,8,training,8,5,6,1,1,1,0.473354
17,4,9,training,9,6,5,1,1,1,0.277540
17,4,10,training,10,11,6,0,0,1,0.333571
17,4,11,training,11,6,5,1,1,1,0.334310
17,4,12,training,12,5,6,1,1,1,0.251659
17,4,13,training,13,10,5,0,0,1,0.274823
17,4,14,training,14,5,0,0,0,1,0.711017
17,4,15,training,15,6,1,0,0,1,0.296554
17,4,16,training,16,5,6,1,1,1,0.276605
17,4,17,training,17,6,1,0,0,1,0.035749
17,4,18,training,18,5,0,0,0,1,0.187105
17,4,19,training,19,6,5,1,1,1,0.074714
17,4,20,training,20,5,6,1,1,1,0.098598
17,4,21,training,21,5,6,1,1,1,0.181073
17,4,22,training,22,10,5,0,0,1,0.003138
17,4,23,training,23,11,6,0,0,1,0.088694
17,4,24,training,24,6,5,1,1,1,0.131597
17,4,25,training,25,6,1,0,0,1,0.383014
17,4,26,training,26,5,0,0,0,1,0.233489
17,4,27,training,27,6,5,1,1,1,0.081212
17,4,28,training,28,11,6,0,0,1,0.089608
17,4,29,training,29,6,5,1,1,1,0.057153
17,4,30,training,30,5,6,1,1,1,0.053525
17,4,31,training,31,5,6,1,1,1,0.026346
17,4,32,training,32,10,5,0,0,1,0.000184
17,4,33,training,33,5,0,0,0,1,0.590565
17,4,34,training,34,6,5,1,1,1,0.097761
17,4,35,training,35,6,1,0,0,1,0.402176
17,4,36,training,36,5,6,1,1,1,0.012022
17,4,37,training,37,5,6,1,1,1,0.059385
17,4,38,training,38,11,6,0,0,1,0.008836
17,4,39,training,39,10,5,0,0,1,0.911166
17,4,40,training,40,6,5,1,1,1,0.115760
17,4,41,training,41,6,5,1,1,1,0.098617
17,4,42,training,42,6,5,1,1,1,0.094653
17,4,43,training,43,5,0,0,0,1,0.105464
17,4,44,training,44,5,6,1,1,1,0.236702
17,4,45,training,45,6,1,0,0,1,0.325869
17,4,46,training,46,10,5,0,0,1,0.292640
17,4,47,training,47,5,6,1,1,1,0.161268
17,4,48,training,48,11,6,0,0,1,0.323279
17,4,49,training,49,6,1,0,0,1,0.314582
17,4,50,training,50,5,0,0,0,1,0.328566
17,4,51,training,51,5,6,1,1,1,0.105719
17,4,52,training,52,6,5,1,1,1,0.121336
17,4,53,training,53,10,5,0,0,1,0.371217
17,4,54,training,54,6,5,1,1,1,0.235857
17,4,55,training,55,11,6,0,0,1,0.043488
17,4,56,training,56,5,6,1,1,1,0.090612
17,4,57,training,57,5,0,0,0,1,0.481747
17,4,58,training,58,6,1,0,0,1,0.096476
17,4,59,training,59,6,5,1,1,1,0.064041
17,4,60,training,60,5,6,1,1,1,0.071968
17,4,61,training,61,6,5,1,1,1,0.050794
17,4,62,training,62,11,6,0,0,1,0.122438
17,4,63,training,63,10,5,0,0,1,0.477892
17,4,64,training,64,5,6,1,1,1,0.564526
17,4,65,training,65,5,0,0,0,1,0.136628
17,4,66,training,66,11,6,0,0,1,0.066513
17,4,67,training,67,6,5,1,1,1,0.281361
17,4,68,training,68,10,5,0,0,1,0.045818
17,4,69,training,69,5,6,1,1,1,0.178804
17,4,70,training,70,6,1,0,0,1,0.096580
17,4,71,training,71,6,5,1,1,1,0.299201
17,4,72,training,72,5,6,1,1,1,0.244224
17,4,73,training,73,5,6,1,1,1,0.178403
17,4,74,training,74,10,5,0,0,1,0.102649
17,4,75,training,75,11,6,0,0,1,0.104711
17,4,76,training,76,5,0,0,0,1,0.330762
17,4,77,training,77,5,6,1,1,1,0.065296
17,4,78,training,78,6,5,1,1,1,0.075664
17,4,79,training,79,6,5,1,1,1,0.076958
17,4,80,training,80,6,1,0,0,1,0.294214
17,4,81,training,81,6,5,1,1,1,0.117183
17,4,82,training,82,5,0,0,0,1,0.087686
17,4,83,training,83,6,1,0,0,1,0.128188
17,4,84,training,84,11,6,0,0,1,0.106729
17,4,85,training,85,6,5,1,1,1,0.145579
17,4,86,training,86,5,6,1,1,1,0.710863
17,4,87,training,87,5,6,1,1,1,0.145855
17,4,88,training,88,10,5,0,0,1,0.588941
17,4,89,training,89,11,6,0,0,1,0.118477
17,4,90,training,90,6,5,1,1,1,0.515980
17,4,91,training,91,5,6,1,1,1,0.108415
17,4,92,training,92,5,0,0,0,1,0.220793
17,4,93,training,93,10,5,0,0,1,0.866205
17,4,94,training,94,5,6,1,1,1,0.361494
17,4,95,training,95,6,1,0,0,1,0.209816
17,4,96,training,96,6,5,1,1,1,0.232643
17,4,97,generalization,1,9,9,0,NaN,NaN,2.010570
17,4,98,generalization,2,6,1,0,NaN,NaN,1.051917
17,4,99,generalization,3,2,0,0,NaN,NaN,25.582791
17,4,100,generalization,4,10,5,0,NaN,NaN,0.304234
17,4,101,generalization,5,0,1,0,NaN,NaN,5.176486
17,4,102,generalization,6,9,11,0,NaN,NaN,0.646033
17,4,103,generalization,7,11,1,1,NaN,NaN,0.839228
17,4,104,generalization,8,11,9,0,NaN,NaN,1.549682
17,4,105,generalization,9,1,11,1,NaN,NaN,0.982034
17,4,106,generalization,10,9,2,1,NaN,NaN,2.207976
17,4,107,generalization,11,1,1,0,NaN,NaN,0.609176
17,4,108,generalization,12,10,0,1,NaN,NaN,0.345563
17,4,109,generalization,13,10,9,0,NaN,NaN,1.379145
17,4,110,generalization,14,10,1,1,NaN,NaN,1.183108
17,4,111,generalization,15,1,10,1,NaN,NaN,1.494214
17,4,112,generalization,16,10,2,1,NaN,NaN,0.493440
17,4,113,generalization,17,9,0,1,NaN,NaN,0.370972
17,4,114,generalization,18,2,1,0,NaN,NaN,0.381388
17,4,115,generalization,19,5,0,0,NaN,NaN,0.824210
17,4,116,generalization,20,0,10,1,NaN,NaN,5.542101
17,4,117,generalization,21,1,2,0,NaN,NaN,4.420758
17,4,118,generalization,22,9,1,1,NaN,NaN,5.270655
17,4,119,generalization,23,2,9,1,NaN,NaN,7.118658
17,4,120,generalization,24,1,9,1,NaN,NaN,0.869821
17,4,121,generalization,25,2,2,0,NaN,NaN,0.426855
17,4,122,generalization,26,0,9,0,NaN,NaN,0.424226
17,4,123,generalization,27,11,6,0,NaN,NaN,2.059786
17,4,124,generalization,28,5,6,1,NaN,NaN,0.585378
17,4,125,generalization,29,2,10,1,NaN,NaN,0.337028
17,4,126,generalization,30,10,11,0,NaN,NaN,0.866535
17,4,127,generalization,31,11,10,0,NaN,NaN,0.233722
17,4,128,generalization,32,11,0,1,NaN,NaN,0.712659
17,4,129,generalization,33,1,0,0,NaN,NaN,0.355788
17,4,130,generalization,34,11,11,0,NaN,NaN,1.365738
17,4,131,generalization,35,2,11,1,NaN,NaN,0.759442
17,4,132,generalization,36,9,10,0,NaN,NaN,0.477693
17,4,133,generalization,37,0,2,0,NaN,NaN,1.810797
17,4,134,generalization,38,0,0,0,NaN,NaN,4.151663
17,4,135,generalization,39,10,10,0,NaN,NaN,7.740414
17,4,136,generalization,40,11,2,1,NaN,NaN,0.883815
17,4,137,generalization,41,0,11,1,NaN,NaN,4.152976
17,4,138,generalization,42,6,5,1,NaN,NaN,6.014148
18,5,1,training,1,11,6,0,0,1,3.241985
18,5,2,training,2,5,0,0,0,1,1.713011
18,5,3,training,3,6,5,0,1,0,1.807976
18,5,4,training,4,6,1,0,0,1,2.457008
18,5,5,training,5,5,6,1,1,1,0.731883
18,5,6,training,6,5,6,1,1,1,0.945647
18,5,7,training,7,10,5,0,0,1,1.455909
18,5,8,training,8,6,5,1,1,1,0.789152
18,5,9,training,9,6,5,1,1,1,0.689023
18,5,10,training,10,5,6,1,1,1,0.382550
18,5,11,training,11,10,5,0,0,1,0.721096
18,5,12,training,12,6,1,0,0,1,0.635398
18,5,13,training,13,6,5,1,1,1,0.611586
18,5,14,training,14,5,6,1,1,1,0.478428
18,5,15,training,15,11,6,0,0,1,1.368869
18,5,16,training,16,5,0,0,0,1,0.704936
18,5,17,training,17,6,5,1,1,1,0.315559
18,5,18,training,18,10,5,0,0,1,0.983537
18,5,19,training,19,5,6,1,1,1,0.477018
18,5,20,training,20,5,6,1,1,1,0.532286
18,5,21,training,21,6,5,1,1,1,0.450372
18,5,22,training,22,11,6,0,0,1,0.674258
18,5,23,training,23,6,1,0,0,1,0.599258
18,5,24,training,24,5,0,0,0,1,0.382257
18,5,25,training,25,5,6,1,1,1,0.638318
18,5,26,training,26,6,1,0,0,1,1.356672
18,5,27,training,27,6,5,1,1,1,0.715256
18,5,28,training,28,6,5,1,1,1,0.319112
18,5,29,training,29,11,6,0,0,1,0.525749
18,5,30,training,30,5,6,1,1,1,1.193088
18,5,31,training,31,5,0,0,0,1,0.366719
18,5,32,training,32,10,5,0,0,1,6.123182
18,5,33,training,33,6,5,1,1,1,0.411553
18,5,34,training,34,5,6,1,1,1,0.472322
18,5,35,training,35,6,1,0,0,1,0.388730
18,5,36,training,36,6,5,1,1,1,0.425562
18,5,37,training,37,5,6,1,1,1,0.467698
