subjectid,counterbalance,responsenumber,phase,trialnumber,F1,F2,response,correctresponse,accuracy,rt
1,1,1,training,1,1,5,0,1,0,1.612279
1,1,2,training,2,6,6,1,0,0,0.821048
1,1,3,training,3,1,5,1,1,1,1.047813
1,1,4,training,4,0,6,1,1,1,0.980820
1,1,5,training,5,0,6,1,1,1,0.354112
1,1,6,training,6,1,1,1,0,0,0.954624
1,1,7,training,7,0,0,0,0,1,0.681380
1,1,8,training,8,5,5,0,0,1,1.020859
1,1,9,training,9,1,5,1,1,1,0.822168
1,1,10,training,10,0,6,1,1,1,0.676923
1,1,11,training,11,5,5,0,0,1,0.452716
1,1,12,training,12,1,5,1,1,1,0.875073
1,1,13,training,13,1,1,0,0,1,0.529759
1,1,14,training,14,0,6,1,1,1,1.243987
1,1,15,training,15,0,0,1,0,0,0.957481
1,1,16,training,16,6,6,0,0,1,4.084855
1,1,17,training,17,5,5,0,0,1,1.065469
1,1,18,training,18,0,6,1,1,1,0.608515
1,1,19,training,19,0,6,1,1,1,0.336581
1,1,20,training,20,6,6,0,0,1,0.780002
1,1,21,training,21,1,1,0,0,1,2.019699
1,1,22,training,22,1,5,1,1,1,1.037138
1,1,23,training,23,0,0,0,0,1,0.332765
1,1,24,training,24,1,5,1,1,1,0.978552
1,1,25,training,25,1,5,1,1,1,3.955626
1,1,26,training,26,1,1,0,0,1,1.207226
1,1,27,training,27,0,6,1,1,1,0.424630
1,1,28,training,28,0,6,1,1,1,0.602537
1,1,29,training,29,5,5,0,0,1,0.570118
1,1,30,training,30,0,0,0,0,1,0.585947
1,1,31,training,31,1,5,1,1,1,1.909014
1,1,32,training,32,6,6,0,0,1,1.155794
1,1,33,training,33,5,5,0,0,1,1.762321
1,1,34,training,34,1,1,0,0,1,2.573490
1,1,35,training,35,1,5,1,1,1,15.470898
1,1,36,training,36,0,0,0,0,1,0.871756
1,1,37,training,37,6,6,0,0,1,0.471108
1,1,38,training,38,1,5,1,1,1,0.888852
1,1,39,training,39,0,6,1,1,1,0.331659
1,1,40,training,40,0,6,1,1,1,0.290705
1,1,41,training,41,6,6,0,0,1,1.029000
1,1,42,training,42,5,5,0,0,1,3.515255
1,1,43,training,43,1,5,1,1,1,1.987036
1,1,44,training,44,0,6,1,1,1,4.304963
1,1,45,training,45,1,1,0,0,1,0.691591
1,1,46,training,46,0,0,0,0,1,0.235095
1,1,47,training,47,1,5,1,1,1,0.449258
1,1,48,training,48,0,6,1,1,1,0.268417
1,1,49,training,49,0,0,0,0,1,0.572449
1,1,50,training,50,6,6,0,0,1,1.324569
1,1,51,training,51,1,1,0,0,1,1.295942
1,1,52,training,52,0,6,1,1,1,1.447534
1,1,53,training,53,5,5,0,0,1,0.917906
1,1,54,training,54,1,5,1,1,1,1.725480
1,1,55,training,55,1,5,1,1,1,14.421874
1,1,56,training,56,0,6,1,1,1,5.741954
1,1,57,training,57,6,6,0,0,1,0.376357
1,1,58,training,58,1,5,1,1,1,0.929571
1,1,59,training,59,5,5,0,0,1,0.830036
1,1,60,training,60,0,0,0,0,1,0.610599
1,1,61,training,61,0,6,1,1,1,0.418273
1,1,62,training,62,1,5,1,1,1,2.610953
1,1,63,training,63,0,6,1,1,1,2.427998
1,1,64,training,64,1,1,0,0,1,7.728131
1,1,65,training,65,1,5,1,1,1,0.870843
1,1,66,training,66,0,6,1,1,1,1.161779
1,1,67,training,67,0,0,0,0,1,0.383582
1,1,68,training,68,6,6,0,0,1,1.037284
1,1,69,training,69,0,6,1,1,1,15.469716
1,1,70,training,70,1,5,1,1,1,0.662704
1,1,71,training,71,1,1,0,0,1,0.722817
1,1,72,training,72,5,5,0,0,1,1.140281
1,1,73,training,73,0,0,0,0,1,3.115755
1,1,74,training,74,1,5,1,1,1,0.523461
1,1,75,training,75,1,5,1,1,1,0.632819
1,1,76,training,76,0,6,1,1,1,0.365138
1,1,77,training,77,0,6,1,1,1,0.252019
1,1,78,training,78,1,1,0,0,1,0.839629
1,1,79,training,79,5,5,0,0,1,0.571496
1,1,80,training,80,6,6,0,0,1,0.581543
1,1,81,training,81,5,5,0,0,1,0.351852
1,1,82,training,82,1,1,0,0,1,1.335320
1,1,83,training,83,0,6,1,1,1,0.552990
1,1,84,training,84,1,5,1,1,1,1.171133
1,1,85,training,85,6,6,0,0,1,1.828014
1,1,86,training,86,1,5,1,1,1,0.887351
1,1,87,training,87,0,0,0,0,1,1.119346
1,1,88,training,88,0,6,1,1,1,0.740378
1,1,89,training,89,0,6,1,1,1,12.218568
1,1,90,training,90,1,1,0,0,1,0.932559
1,1,91,training,91,6,6,0,0,1,1.115157
1,1,92,training,92,0,6,1,1,1,2.306261
1,1,93,training,93,1,5,1,1,1,0.493337
1,1,94,training,94,5,5,0,0,1,20.444546
1,1,95,training,95,0,0,0,0,1,0.678237
1,1,96,training,96,1,5,1,1,1,1.510630
1,1,97,generalization,1,5,1,1,NaN,NaN,3.808866
1,1,98,generalization,2,5,2,1,NaN,NaN,0.347288
1,1,99,generalization,3,6,2,1,NaN,NaN,0.420482
1,1,100,generalization,4,4,0,1,NaN,NaN,0.464030
1,1,101,generalization,5,5,5,0,NaN,NaN,0.524323
1,1,102,generalization,6,6,0,1,NaN,NaN,0.362626
1,1,103,generalization,7,0,0,0,NaN,NaN,0.788617
1,1,104,generalization,8,1,5,1,NaN,NaN,1.249793
1,1,105,generalization,9,4,2,1,NaN,NaN,2.554743
1,1,106,generalization,10,6,1,1,NaN,NaN,2.509097
1,1,107,generalization,11,5,0,1,NaN,NaN,0.342383
1,1,108,generalization,12,6,6,0,NaN,NaN,0.671918
1,1,109,generalization,13,0,6,1,NaN,NaN,0.489839
1,1,110,generalization,14,4,1,1,NaN,NaN,1.230957
1,1,111,generalization,15,1,1,0,NaN,NaN,0.342967
2,3,1,training,1,0,6,1,1,1,6.551439
2,3,2,training,2,1,5,1,1,1,1.278636
2,3,3,training,3,0,6,1,1,1,0.596209
2,3,4,training,4,6,6,1,0,0,0.551227
2,3,5,training,5,0,0,1,0,0,1.578331
2,3,6,training,6,1,5,1,1,1,1.644200
2,3,7,training,7,5,5,0,0,1,2.323679
2,3,8,training,8,1,1,0,0,1,0.274866
2,3,9,training,9,0,6,1,1,1,1.365587
2,3,10,training,10,1,1,0,0,1,0.351318
2,3,11,training,11,5,5,1,0,0,0.881969
2,3,12,training,12,0,0,0,0,1,0.469642
2,3,13,training,13,1,5,1,1,1,1.466438
2,3,14,training,14,6,6,0,0,1,0.425595
2,3,15,training,15,0,6,1,1,1,0.668358
2,3,16,training,16,1,5,1,1,1,0.549849
2,3,17,training,17,1,5,1,1,1,0.299026
2,3,18,training,18,0,6,1,1,1,0.607936
2,3,19,training,19,0,6,1,1,1,0.206644
2,3,20,training,20,1,5,1,1,1,0.454538
2,3,21,training,21,1,1,0,0,1,0.964431
2,3,22,training,22,5,5,0,0,1,0.467290
2,3,23,training,23,6,6,0,0,1,0.623447
2,3,24,training,24,0,0,0,0,1,0.430859
2,3,25,training,25,0,6,1,1,1,1.143377
2,3,26,training,26,0,0,0,0,1,0.774253
2,3,27,training,27,1,5,1,1,1,0.830290
2,3,28,training,28,1,1,0,0,1,0.300401
2,3,29,training,29,6,6,0,0,1,0.947015
2,3,30,training,30,0,6,1,1,1,0.682020
2,3,31,training,31,1,5,1,1,1,0.373114
2,3,32,training,32,5,5,0,0,1,0.367897
2,3,33,training,33,1,5,1,1,1,0.316333
2,3,34,training,34,1,1,0,0,1,0.287034
2,3,35,training,35,6,6,0,0,1,0.474766
2,3,36,training,36,0,6,1,1,1,0.267691
2,3,37,training,37,0,0,0,0,1,0.455866
2,3,38,training,38,5,5,0,0,1,0.883482
2,3,39,training,39,0,6,1,1,1,0.286803
2,3,40,training,40,1,5,1,1,1,0.851951
2,3,41,training,41,1,1,0,0,1,0.218374
2,3,42,training,42,0,6,1,1,1,0.429510
2,3,43,training,43,5,5,0,0,1,0.996665
2,3,44,training,44,1,5,1,1,1,0.458362
2,3,45,training,45,6,6,0,0,1,0.244931
2,3,46,training,46,1,5,1,1,1,0.426229
2,3,47,training,47,0,6,1,1,1,0.218835
2,3,48,training,48,0,0,0,0,1,0.474868
2,3,49,training,49,6,6,0,0,1,0.389213
2,3,50,training,50,1,1,1,0,0,0.188253
2,3,51,training,51,0,0,0,0,1,0.163145
2,3,52,training,52,1,5,1,1,1,0.381703
2,3,53,training,53,1,5,1,1,1,0.591998
2,3,54,training,54,5,5,1,0,0,0.785145
2,3,55,training,55,0,6,1,1,1,0.380927
2,3,56,training,56,0,6,1,1,1,0.465693
2,3,57,training,57,6,6,0,0,1,0.241580
2,3,58,training,58,1,5,1,1,1,0.507895
2,3,59,training,59,1,1,0,0,1,0.206753
2,3,60,training,60,5,5,0,0,1,0.214083
2,3,61,training,61,0,6,1,1,1,0.378224
2,3,62,training,62,0,6,1,1,1,0.600275
2,3,63,training,63,1,5,1,1,1,0.987344
2,3,64,training,64,0,0,0,0,1,0.224112
2,3,65,training,65,1,5,1,1,1,0.209377
2,3,66,training,66,1,5,1,1,1,0.298048
2,3,67,training,67,1,1,0,0,1,0.229723
2,3,68,training,68,5,5,0,0,1,0.198792
2,3,69,training,69,0,0,0,0,1,0.231569
2,3,70,training,70,6,6,0,0,1,0.401565
2,3,71,training,71,0,6,1,1,1,0.919622
2,3,72,training,72,0,6,1,1,1,0.323486
2,3,73,training,73,0,6,1,1,1,0.231028
2,3,74,training,74,1,5,1,1,1,0.290231
2,3,75,training,75,5,5,0,0,1,0.860442
2,3,76,training,76,0,6,1,1,1,0.705070
2,3,77,training,77,6,6,0,0,1,0.500863
2,3,78,training,78,1,1,0,0,1,0.168149
2,3,79,training,79,0,0,0,0,1,0.264222
2,3,80,training,80,1,5,1,1,1,0.922604
2,3,81,training,81,0,0,0,0,1,0.129302
2,3,82,training,82,0,6,1,1,1,0.340753
2,3,83,training,83,1,1,0,0,1,0.441617
2,3,84,training,84,1,5,1,1,1,0.366404
2,3,85,training,85,1,5,1,1,1,3.186918
2,3,86,training,86,6,6,0,0,1,0.403141
2,3,87,training,87,0,6,1,1,1,0.225985
2,3,88,training,88,5,5,0,0,1,0.856857
2,3,89,training,89,1,5,1,1,1,0.635708
2,3,90,training,90,0,6,1,1,1,0.234918
2,3,91,training,91,5,5,0,0,1,0.941195
2,3,92,training,92,6,6,0,0,1,1.443670
2,3,93,training,93,1,1,0,0,1,0.218987
2,3,94,training,94,0,0,0,0,1,0.228080
2,3,95,training,95,1,5,1,1,1,2.528658
2,3,96,training,96,0,6,1,1,1,0.142656
2,3,97,generalization,1,0,6,1,NaN,NaN,0.422410
2,3,98,generalization,2,0,0,0,NaN,NaN,0.486947
2,3,99,generalization,3,4,0,0,NaN,NaN,0.340105
2,3,100,generalization,4,4,1,0,NaN,NaN,0.269726
2,3,101,generalization,5,6,6,0,NaN,NaN,0.333263
2,3,102,generalization,6,4,2,0,NaN,NaN,0.446476
2,3,103,generalization,7,5,1,0,NaN,NaN,0.314835
2,3,104,generalization,8,5,0,0,NaN,NaN,0.227998
2,3,105,generalization,9,1,5,1,NaN,NaN,0.402850
2,3,106,generalization,10,6,2,0,NaN,NaN,0.222096
2,3,107,generalization,11,5,2,0,NaN,NaN,0.252415
2,3,108,generalization,12,1,1,0,NaN,NaN,0.203531
2,3,109,generalization,13,6,1,0,NaN,NaN,0.249533
2,3,110,generalization,14,5,5,0,NaN,NaN,1.152732
2,3,111,generalization,15,6,0,0,NaN,NaN,0.255185
3,5,1,training,1,0,6,0,1,0,3.473859
3,5,2,training,2,1,1,0,0,1,0.741467
3,5,3,training,3,5,5,1,0,0,1.667975
3,5,4,training,4,0,0,0,0,1,2.689335
3,5,5,training,5,1,5,1,1,1,1.804430
3,5,6,training,6,0,6,1,1,1,1.198521
3,5,7,training,7,6,6,1,0,0,0.519448
3,5,8,training,8,1,5,1,1,1,0.972025
3,5,9,training,9,0,6,1,1,1,1.036067
3,5,10,training,10,1,5,1,1,1,0.772506
3,5,11,training,11,5,5,1,0,0,1.040081
3,5,12,training,12,6,6,0,0,1,1.574099
3,5,13,training,13,1,1,0,0,1,1.331652
3,5,14,training,14,1,5,1,1,1,1.554232
3,5,15,training,15,0,0,0,0,1,1.604520
3,5,16,training,16,0,6,1,1,1,0.598939
3,5,17,training,17,6,6,0,0,1,0.684556
3,5,18,training,18,1,5,1,1,1,0.666972
3,5,19,training,19,0,0,0,0,1,0.483144
3,5,20,training,20,1,5,1,1,1,0.938078
3,5,21,training,21,0,6,1,1,1,0.888817
3,5,22,training,22,0,6,1,1,1,0.489559
3,5,23,training,23,1,1,0,0,1,0.499229
3,5,24,training,24,5,5,0,0,1,0.598945
3,5,25,training,25,6,6,0,0,1,0.613560
3,5,26,training,26,5,5,0,0,1,0.930643
3,5,27,training,27,1,1,0,0,1,1.112536
3,5,28,training,28,0,6,1,1,1,0.578557
3,5,29,training,29,0,6,1,1,1,0.615684
3,5,30,training,30,1,5,1,1,1,1.213601
3,5,31,training,31,1,5,1,1,1,2.119498
3,5,32,training,32,0,0,0,0,1,0.532594
3,5,33,training,33,0,6,1,1,1,0.574897
3,5,34,training,34,5,5,0,0,1,0.562261
3,5,35,training,35,0,6,1,1,1,0.507986
3,5,36,training,36,6,6,0,0,1,0.536964
3,5,37,training,37,1,1,0,0,1,3.684694
3,5,38,training,38,0,0,0,0,1,0.410866
3,5,39,training,39,1,5,1,1,1,1.218861
3,5,40,training,40,1,5,1,1,1,0.546576
3,5,41,training,41,0,6,1,1,1,0.730436
3,5,42,training,42,1,1,0,0,1,0.377142
3,5,43,training,43,5,5,0,0,1,0.679917
3,5,44,training,44,1,5,1,1,1,0.983647
3,5,45,training,45,6,6,0,0,1,0.473454
3,5,46,training,46,0,0,0,0,1,0.747306
3,5,47,training,47,0,6,1,1,1,0.547177
3,5,48,training,48,1,5,1,1,1,1.117439
3,5,49,training,49,1,5,1,1,1,1.285482
3,5,50,training,50,0,6,1,1,1,0.848524
3,5,51,training,51,0,0,0,0,1,0.339463
3,5,52,training,52,1,1,0,0,1,0.537875
3,5,53,training,53,5,5,0,0,1,1.045235
3,5,54,training,54,0,6,1,1,1,0.908025
3,5,55,training,55,6,6,0,0,1,0.381610
3,5,56,training,56,1,5,1,1,1,0.499919
3,5,57,training,57,6,6,0,0,1,0.472241
3,5,58,training,58,5,5,0,0,1,2.377409
3,5,59,training,59,1,5,1,1,1,0.882721
3,5,60,training,60,0,6,1,1,1,0.442332
3,5,61,training,61,1,1,0,0,1,0.749661
3,5,62,training,62,0,6,1,1,1,0.394114
3,5,63,training,63,1,5,1,1,1,0.443333
3,5,64,training,64,0,0,0,0,1,2.003776
3,5,65,training,65,0,0,0,0,1,0.433321
3,5,66,training,66,6,6,0,0,1,0.534755
3,5,67,training,67,5,5,0,0,1,0.521042
3,5,68,training,68,0,6,1,1,1,0.435523
3,5,69,training,69,1,5,1,1,1,0.665287
3,5,70,training,70,0,6,1,1,1,0.477622
3,5,71,training,71,1,5,1,1,1,0.542627
3,5,72,training,72,1,1,0,0,1,0.339073
3,5,73,training,73,1,5,1,1,1,0.799137
3,5,74,training,74,1,1,0,0,1,1.006158
3,5,75,training,75,0,0,0,0,1,0.772451
3,5,76,training,76,0,6,1,1,1,0.927420
3,5,77,training,77,0,6,1,1,1,0.859706
3,5,78,training,78,1,5,1,1,1,0.530400
3,5,79,training,79,6,6,0,0,1,0.461905
3,5,80,training,80,5,5,0,0,1,0.620005
3,5,81,training,81,0,6,1,1,1,0.582130
3,5,82,training,82,0,6,1,1,1,0.404449
3,5,83,training,83,1,1,0,0,1,0.377646
3,5,84,training,84,5,5,0,0,1,4.433080
3,5,85,training,85,6,6,0,0,1,2.896636
3,5,86,training,86,0,0,0,0,1,0.543554
3,5,87,training,87,1,5,1,1,1,0.529457
3,5,88,training,88,1,5,1,1,1,0.390793
3,5,89,training,89,0,0,0,0,1,0.611943
3,5,90,training,90,1,1,0,0,1,0.425361
3,5,91,training,91,1,5,1,1,1,0.854280
3,5,92,training,92,1,5,1,1,1,0.426015
3,5,93,training,93,0,6,1,1,1,3.171048
3,5,94,training,94,0,6,1,1,1,0.611041
3,5,95,training,95,5,5,0,0,1,0.816317
3,5,96,training,96,6,6,0,0,1,0.751628
3,5,97,generalization,1,4,1,0,NaN,NaN,1.268384
3,5,98,generalization,2,4,0,0,NaN,NaN,0.589571
3,5,99,generalization,3,1,5,1,NaN,NaN,0.557526
3,5,100,generalization,4,5,1,0,NaN,NaN,0.572693
3,5,101,generalization,5,5,2,0,NaN,NaN,0.580283
3,5,102,generalization,6,5,5,0,NaN,NaN,0.563608
3,5,103,generalization,7,6,6,0,NaN,NaN,0.482248
3,5,104,generalization,8,0,0,0,NaN,NaN,0.999436
3,5,105,generalization,9,6,0,0,NaN,NaN,5.129751
3,5,106,generalization,10,5,0,0,NaN,NaN,0.518178
3,5,107,generalization,11,0,6,1,NaN,NaN,0.375482
3,5,108,generalization,12,6,1,0,NaN,NaN,0.510878
3,5,109,generalization,13,4,2,0,NaN,NaN,0.492998
3,5,110,generalization,14,6,2,0,NaN,NaN,0.978526
3,5,111,generalization,15,1,1,0,NaN,NaN,0.620587
4,0,1,training,1,0,6,0,1,0,4.891464
4,0,2,training,2,1,5,1,1,1,1.065307
4,0,3,training,3,5,5,0,0,1,0.706807
4,0,4,training,4,0,6,1,1,1,0.705447
4,0,5,training,5,1,1,1,0,0,3.393936
4,0,6,training,6,6,6,0,0,1,2.168814
4,0,7,training,7,0,0,0,0,1,1.832374
4,0,8,training,8,1,5,1,1,1,1.098164
4,0,9,training,9,0,6,1,1,1,0.434326
4,0,10,training,10,0,6,1,1,1,0.372171
4,0,11,training,11,1,5,1,1,1,0.539517
4,0,12,training,12,1,1,0,0,1,0.536771
4,0,13,training,13,1,5,1,1,1,0.875768
4,0,14,training,14,5,5,0,0,1,1.059674
4,0,15,training,15,0,0,0,0,1,1.514674
4,0,16,training,16,6,6,0,0,1,1.149493
4,0,17,training,17,1,5,1,1,1,0.397831
4,0,18,training,18,6,6,0,0,1,0.590787
4,0,19,training,19,1,5,1,1,1,0.494390
4,0,20,training,20,5,5,0,0,1,0.455282
4,0,21,training,21,0,0,0,0,1,0.363542
4,0,22,training,22,0,6,1,1,1,0.679102
4,0,23,training,23,0,6,1,1,1,0.587495
4,0,24,training,24,1,1,0,0,1,0.580982
4,0,25,training,25,5,5,0,0,1,0.855104
4,0,26,training,26,6,6,0,0,1,0.561216
4,0,27,training,27,1,5,1,1,1,0.643192
4,0,28,training,28,0,6,1,1,1,1.264713
4,0,29,training,29,0,6,1,1,1,0.454668
4,0,30,training,30,1,1,0,0,1,0.698766
4,0,31,training,31,0,0,0,0,1,0.482545
4,0,32,training,32,1,5,1,1,1,1.108489
4,0,33,training,33,1,5,1,1,1,0.492111
4,0,34,training,34,0,6,1,1,1,0.493517
4,0,35,training,35,1,5,1,1,1,0.487171
4,0,36,training,36,0,0,0,0,1,0.419480
4,0,37,training,37,6,6,0,0,1,0.544543
4,0,38,training,38,5,5,0,0,1,0.374894
4,0,39,training,39,1,1,0,0,1,1.519892
4,0,40,training,40,0,6,1,1,1,1.299247
4,0,41,training,41,0,6,1,1,1,0.336825
4,0,42,training,42,0,6,1,1,1,0.691075
4,0,43,training,43,1,1,0,0,1,0.522811
4,0,44,training,44,1,5,1,1,1,0.586952
4,0,45,training,45,5,5,0,0,1,0.587655
4,0,46,training,46,1,5,1,1,1,0.796640
4,0,47,training,47,0,0,0,0,1,0.438649
4,0,48,training,48,6,6,0,0,1,0.597455
4,0,49,training,49,0,6,1,1,1,0.752739
4,0,50,training,50,1,5,1,1,1,1.971371
4,0,51,training,51,0,0,0,0,1,0.856856
4,0,52,training,52,5,5,0,0,1,0.418504
4,0,53,training,53,1,1,0,0,1,1.107970
4,0,54,training,54,0,6,1,1,1,0.356805
4,0,55,training,55,1,5,1,1,1,0.555929
4,0,56,training,56,6,6,0,0,1,0.765313
4,0,57,training,57,1,5,1,1,1,0.815969
4,0,58,training,58,0,6,1,1,1,0.357211
4,0,59,training,59,1,5,1,1,1,0.881065
4,0,60,training,60,1,1,0,0,1,0.433555
4,0,61,training,61,5,5,0,0,1,0.710888
4,0,62,training,62,0,0,0,0,1,1.341564
4,0,63,training,63,6,6,0,0,1,0.531595
4,0,64,training,64,0,6,1,1,1,0.446037
4,0,65,training,65,0,0,0,0,1,0.548494
4,0,66,training,66,1,1,0,0,1,1.707293
4,0,67,training,67,6,6,0,0,1,0.370889
4,0,68,training,68,5,5,0,0,1,0.347314
4,0,69,training,69,1,5,1,1,1,0.542872
4,0,70,training,70,0,6,1,1,1,0.413236
4,0,71,training,71,0,6,1,1,1,0.756562
4,0,72,training,72,1,5,1,1,1,0.447882
4,0,73,training,73,5,5,0,0,1,0.377144
4,0,74,training,74,1,5,1,1,1,0.593151
4,0,75,training,75,6,6,0,0,1,0.324058
4,0,76,training,76,1,5,1,1,1,0.535810
4,0,77,training,77,0,6,1,1,1,0.871209
4,0,78,training,78,0,0,0,0,1,0.424556
4,0,79,training,79,1,1,0,0,1,0.431776
4,0,80,training,80,0,6,1,1,1,0.524816
4,0,81,training,81,5,5,0,0,1,0.648925
4,0,82,training,82,0,6,1,1,1,0.462572
4,0,83,training,83,0,6,1,1,1,2.001694
4,0,84,training,84,6,6,0,0,1,0.918461
4,0,85,training,85,1,5,1,1,1,0.937604
4,0,86,training,86,1,1,0,0,1,0.652657
4,0,87,training,87,1,5,1,1,1,0.346208
4,0,88,training,88,0,0,0,0,1,0.338818
4,0,89,training,89,0,0,0,0,1,0.353514
4,0,90,training,90,1,1,0,0,1,0.411705
4,0,91,training,91,1,5,1,1,1,0.667426
4,0,92,training,92,1,5,1,1,1,0.540107
4,0,93,training,93,6,6,0,0,1,0.439493
4,0,94,training,94,0,6,1,1,1,0.723464
4,0,95,training,95,5,5,0,0,1,0.375696
4,0,96,training,96,0,6,1,1,1,0.546894
4,0,97,generalization,1,6,6,0,NaN,NaN,4.830930
4,0,98,generalization,2,5,0,1,NaN,NaN,2.403395
4,0,99,generalization,3,5,1,1,NaN,NaN,1.737712
4,0,100,generalization,4,6,2,1,NaN,NaN,0.998968
4,0,101,generalization,5,0,6,1,NaN,NaN,1.097243
4,0,102,generalization,6,5,2,1,NaN,NaN,1.189620
4,0,103,generalization,7,0,0,0,NaN,NaN,0.716787
4,0,104,generalization,8,4,1,0,NaN,NaN,0.600053
4,0,105,generalization,9,6,0,1,NaN,NaN,1.392057
4,0,106,generalization,10,5,5,0,NaN,NaN,1.612304
4,0,107,generalization,11,4,0,0,NaN,NaN,4.278291
4,0,108,generalization,12,4,2,1,NaN,NaN,15.652246
4,0,109,generalization,13,1,1,0,NaN,NaN,1.350494
4,0,110,generalization,14,1,5,1,NaN,NaN,1.194207
4,0,111,generalization,15,6,1,1,NaN,NaN,0.649678
5,5,1,training,1,1,1,0,0,1,3.190032
5,5,2,training,2,1,5,0,1,0,1.073030
5,5,3,training,3,0,0,0,0,1,0.347450
5,5,4,training,4,0,6,1,1,1,0.387842
5,5,5,training,5,0,6,1,1,1,0.749647
5,5,6,training,6,6,6,1,0,0,0.873074
5,5,7,training,7,5,5,0,0,1,0.666977
5,5,8,training,8,1,5,1,1,1,0.419007
5,5,9,training,9,1,5,1,1,1,0.320237
5,5,10,training,10,1,1,0,0,1,0.682950
5,5,11,training,11,0,6,1,1,1,0.466430
5,5,12,training,12,0,6,1,1,1,0.290159
5,5,13,training,13,0,0,0,0,1,0.607005
5,5,14,training,14,5,5,0,0,1,0.403265
5,5,15,training,15,1,5,1,1,1,0.418910
5,5,16,training,16,6,6,0,0,1,1.161602
5,5,17,training,17,6,6,0,0,1,0.624442
5,5,18,training,18,0,6,1,1,1,0.292159
5,5,19,training,19,0,6,1,1,1,0.186413
5,5,20,training,20,5,5,0,0,1,0.392072
5,5,21,training,21,1,5,1,1,1,0.353569
5,5,22,training,22,1,1,0,0,1,0.301474
5,5,23,training,23,1,5,1,1,1,0.252006
5,5,24,training,24,0,0,0,0,1,0.412357
5,5,25,training,25,1,5,1,1,1,0.271808
5,5,26,training,26,5,5,0,0,1,0.266463
5,5,27,training,27,0,0,0,0,1,0.682009
5,5,28,training,28,6,6,0,0,1,0.612919
5,5,29,training,29,0,6,1,1,1,0.273009
5,5,30,training,30,1,5,1,1,1,0.907496
5,5,31,training,31,1,1,0,0,1,0.277297
5,5,32,training,32,0,6,1,1,1,0.550886
5,5,33,training,33,0,0,0,0,1,0.295216
5,5,34,training,34,1,1,0,0,1,0.993694
5,5,35,training,35,1,5,1,1,1,0.656704
5,5,36,training,36,0,6,1,1,1,0.430175
5,5,37,training,37,5,5,0,0,1,0.281468
5,5,38,training,38,1,5,1,1,1,0.256613
5,5,39,training,39,0,6,1,1,1,0.228991
5,5,40,training,40,6,6,0,0,1,0.229734
5,5,41,training,41,1,1,0,0,1,0.504766
5,5,42,training,42,5,5,0,0,1,1.186213
5,5,43,training,43,0,0,0,0,1,0.416920
5,5,44,training,44,1,5,1,1,1,0.374895
5,5,45,training,45,0,6,1,1,1,0.242407
5,5,46,training,46,6,6,0,0,1,0.532264
5,5,47,training,47,1,5,1,1,1,0.611042
5,5,48,training,48,0,6,1,1,1,0.517404
5,5,49,training,49,1,1,0,0,1,0.308476
5,5,50,training,50,5,5,0,0,1,0.246585
5,5,51,training,51,6,6,0,0,1,0.314026
5,5,52,training,52,1,5,1,1,1,0.251322
5,5,53,training,53,0,6,1,1,1,0.233078
5,5,54,training,54,0,0,0,0,1,0.276340
5,5,55,training,55,0,6,1,1,1,0.418247
5,5,56,training,56,1,5,1,1,1,0.414065
5,5,57,training,57,0,6,1,1,1,0.217752
5,5,58,training,58,1,5,1,1,1,0.432087
5,5,59,training,59,1,5,1,1,1,0.206561
5,5,60,training,60,5,5,0,0,1,0.218795
5,5,61,training,61,1,1,0,0,1,0.211005
5,5,62,training,62,0,6,1,1,1,0.215306
5,5,63,training,63,0,0,0,0,1,0.298973
5,5,64,training,64,6,6,0,0,1,0.210677
5,5,65,training,65,5,5,0,0,1,0.238714
5,5,66,training,66,0,6,1,1,1,0.370476
5,5,67,training,67,0,0,0,0,1,0.353036
5,5,68,training,68,1,1,0,0,1,0.230389
5,5,69,training,69,1,5,1,1,1,0.646595
5,5,70,training,70,1,5,1,1,1,0.227724
5,5,71,training,71,6,6,0,0,1,0.266145
5,5,72,training,72,0,6,1,1,1,0.659584
5,5,73,training,73,0,6,1,1,1,0.238727
5,5,74,training,74,1,1,0,0,1,0.394647
5,5,75,training,75,6,6,0,0,1,0.417540
5,5,76,training,76,5,5,0,0,1,0.553289
5,5,77,training,77,0,6,1,1,1,0.773875
5,5,78,training,78,1,5,1,1,1,0.678524
5,5,79,training,79,1,5,1,1,1,2.812383
5,5,80,training,80,0,0,0,0,1,0.232660
5,5,81,training,81,1,1,0,0,1,0.881772
5,5,82,training,82,1,5,1,1,1,5.748542
5,5,83,training,83,6,6,0,0,1,3.152928
5,5,84,training,84,0,0,0,0,1,0.584718
5,5,85,training,85,0,6,1,1,1,0.494116
5,5,86,training,86,5,5,0,0,1,20.916673
5,5,87,training,87,1,5,1,1,1,1.492774
5,5,88,training,88,0,6,1,1,1,0.228487
5,5,89,training,89,5,5,0,0,1,0.157609
5,5,90,training,90,6,6,0,0,1,0.788413
5,5,91,training,91,0,0,0,0,1,0.689164
5,5,92,training,92,1,5,1,1,1,2.123858
5,5,93,training,93,1,1,0,0,1,2.345389
5,5,94,training,94,0,6,1,1,1,0.203358
5,5,95,training,95,0,6,1,1,1,0.366326
5,5,96,training,96,1,5,1,1,1,0.371771
5,5,97,generalization,1,6,2,1,NaN,NaN,2.135235
5,5,98,generalization,2,1,5,1,NaN,NaN,2.971856
5,5,99,generalization,3,5,2,1,NaN,NaN,0.896619
5,5,100,generalization,4,5,0,1,NaN,NaN,0.552241
5,5,101,generalization,5,6,1,1,NaN,NaN,0.158960
5,5,102,generalization,6,1,1,0,NaN,NaN,0.459749
5,5,103,generalization,7,4,0,1,NaN,NaN,0.536196
5,5,104,generalization,8,0,6,1,NaN,NaN,1.046509
5,5,105,generalization,9,4,2,1,NaN,NaN,1.258143
5,5,106,generalization,10,6,6,0,NaN,NaN,0.379354
5,5,107,generalization,11,6,0,1,NaN,NaN,0.333757
5,5,108,generalization,12,4,1,1,NaN,NaN,0.342928
5,5,109,generalization,13,5,5,1,NaN,NaN,0.008553
5,5,110,generalization,14,5,1,1,NaN,NaN,0.233569
5,5,111,generalization,15,0,0,0,NaN,NaN,0.760498
6,3,1,training,1,0,6,0,1,0,3.512099
6,3,2,training,2,5,5,1,0,0,1.156809
6,3,3,training,3,0,0,0,0,1,0.587794
6,3,4,training,4,6,6,1,0,0,1.158986
6,3,5,training,5,1,1,0,0,1,1.237242
6,3,6,training,6,0,6,1,1,1,0.780965
6,3,7,training,7,1,5,1,1,1,0.378507
6,3,8,training,8,1,5,1,1,1,0.411290
6,3,9,training,9,1,5,1,1,1,0.715830
6,3,10,training,10,1,5,1,1,1,0.430829
6,3,11,training,11,0,6,1,1,1,0.707121
6,3,12,training,12,0,6,1,1,1,0.412961
6,3,13,training,13,0,0,0,0,1,0.564278
6,3,14,training,14,6,6,1,0,0,0.351033
6,3,15,training,15,1,1,0,0,1,0.498995
6,3,16,training,16,5,5,1,0,0,0.372613
6,3,17,training,17,0,6,1,1,1,0.689778
6,3,18,training,18,5,5,1,0,0,0.459556
6,3,19,training,19,1,5,0,1,0,1.149675
6,3,20,training,20,0,0,0,0,1,0.424240
6,3,21,training,21,1,1,0,0,1,0.468996
6,3,22,training,22,0,6,1,1,1,0.304090
6,3,23,training,23,1,5,1,1,1,0.262612
6,3,24,training,24,6,6,1,0,0,0.272201
6,3,25,training,25,0,6,1,1,1,2.415713
6,3,26,training,26,0,6,1,1,1,0.351556
6,3,27,training,27,6,6,1,0,0,2.137506
6,3,28,training,28,1,1,0,0,1,0.497454
6,3,29,training,29,1,5,1,1,1,0.370408
6,3,30,training,30,1,5,1,1,1,0.286631
6,3,31,training,31,5,5,0,0,1,0.971069
6,3,32,training,32,0,0,0,0,1,0.516581
6,3,33,training,33,0,6,1,1,1,0.349684
6,3,34,training,34,1,5,1,1,1,0.367890
6,3,35,training,35,5,5,0,0,1,0.494564
6,3,36,training,36,1,5,1,1,1,0.709975
6,3,37,training,37,1,1,0,0,1,1.073822
6,3,38,training,38,0,6,1,1,1,0.426062
6,3,39,training,39,6,6,0,0,1,1.150296
6,3,40,training,40,0,0,0,0,1,0.459165
6,3,41,training,41,5,5,0,0,1,1.129626
6,3,42,training,42,0,6,1,1,1,0.410593
6,3,43,training,43,1,5,1,1,1,0.325754
6,3,44,training,44,1,5,1,1,1,0.279946
6,3,45,training,45,6,6,0,0,1,0.920578
6,3,46,training,46,1,1,0,0,1,0.421854
6,3,47,training,47,0,6,1,1,1,0.447836
6,3,48,training,48,0,0,0,0,1,0.911854
6,3,49,training,49,0,0,0,0,1,0.311951
6,3,50,training,50,1,5,1,1,1,0.352168
6,3,51,training,51,5,5,0,0,1,0.382095
6,3,52,training,52,1,1,0,0,1,0.324568
6,3,53,training,53,1,5,1,1,1,0.465797
6,3,54,training,54,0,6,1,1,1,0.620444
6,3,55,training,55,0,6,1,1,1,0.666673
6,3,56,training,56,6,6,0,0,1,1.171176
6,3,57,training,57,6,6,0,0,1,0.529505
6,3,58,training,58,0,6,1,1,1,0.641355
6,3,59,training,59,1,5,1,1,1,0.339325
6,3,60,training,60,1,1,0,0,1,0.362625
6,3,61,training,61,1,5,1,1,1,0.535321
6,3,62,training,62,0,0,0,0,1,0.520089
6,3,63,training,63,5,5,1,0,0,0.389499
6,3,64,training,64,0,6,1,1,1,0.390004
6,3,65,training,65,0,0,0,0,1,0.316427
6,3,66,training,66,5,5,0,0,1,0.962844
6,3,67,training,67,1,5,1,1,1,0.570297
6,3,68,training,68,1,1,0,0,1,0.382247
6,3,69,training,69,6,6,0,0,1,1.119937
6,3,70,training,70,1,5,1,1,1,0.545241
6,3,71,training,71,0,6,1,1,1,0.570539
6,3,72,training,72,0,6,1,1,1,0.248631
6,3,73,training,73,1,1,0,0,1,0.523440
6,3,74,training,74,0,6,1,1,1,0.314487
6,3,75,training,75,1,5,1,1,1,0.278243
6,3,76,training,76,5,5,0,0,1,0.607596
6,3,77,training,77,0,6,1,1,1,0.286829
6,3,78,training,78,1,5,1,1,1,0.256516
6,3,79,training,79,0,0,0,0,1,0.292481
6,3,80,training,80,6,6,0,0,1,1.000076
6,3,81,training,81,1,5,1,1,1,0.369486
6,3,82,training,82,1,1,0,0,1,0.418247
6,3,83,training,83,5,5,0,0,1,0.306177
6,3,84,training,84,6,6,0,0,1,0.906177
6,3,85,training,85,0,6,1,1,1,0.311290
6,3,86,training,86,0,0,0,0,1,0.517868
6,3,87,training,87,0,6,1,1,1,1.243352
6,3,88,training,88,1,5,1,1,1,0.321884
6,3,89,training,89,0,0,0,0,1,0.483037
6,3,90,training,90,5,5,0,0,1,1.375363
6,3,91,training,91,1,1,0,0,1,0.648013
6,3,92,training,92,0,6,1,1,1,0.366533
6,3,93,training,93,0,6,1,1,1,1.215427
6,3,94,training,94,1,5,1,1,1,0.347027
6,3,95,training,95,6,6,0,0,1,0.626015
6,3,96,training,96,1,5,1,1,1,0.418970
6,3,97,generalization,1,5,5,0,NaN,NaN,2.534909
6,3,98,generalization,2,5,0,1,NaN,NaN,0.536426
6,3,99,generalization,3,6,6,0,NaN,NaN,0.814813
6,3,100,generalization,4,6,2,1,NaN,NaN,0.372864
6,3,101,generalization,5,0,6,1,NaN,NaN,1.511147
6,3,102,generalization,6,5,2,1,NaN,NaN,0.462857
6,3,103,generalization,7,6,0,1,NaN,NaN,0.523631
6,3,104,generalization,8,4,2,1,NaN,NaN,0.570047
6,3,105,generalization,9,6,1,1,NaN,NaN,0.361094
6,3,106,generalization,10,1,5,0,NaN,NaN,1.363062
6,3,107,generalization,11,5,1,1,NaN,NaN,0.758755
6,3,108,generalization,12,4,0,1,NaN,NaN,0.339151
6,3,109,generalization,13,1,1,0,NaN,NaN,0.404653
6,3,110,generalization,14,0,0,0,NaN,NaN,0.399859
6,3,111,generalization,15,4,1,1,NaN,NaN,0.674996
7,4,1,training,1,0,6,0,1,0,4.625429
7,4,2,training,2,5,5,0,0,1,0.950861
7,4,3,training,3,0,0,1,0,0,1.292198
7,4,4,training,4,6,6,0,0,1,3.421803
7,4,5,training,5,0,6,1,1,1,5.908655
7,4,6,training,6,1,5,1,1,1,4.275593
7,4,7,training,7,1,5,1,1,1,0.538039
7,4,8,training,8,1,1,0,0,1,1.125555
7,4,9,training,9,1,1,0,0,1,0.574954
7,4,10,training,10,0,6,1,1,1,3.522273
7,4,11,training,11,6,6,0,0,1,1.484450
7,4,12,training,12,1,5,1,1,1,1.108505
7,4,13,training,13,0,0,0,0,1,0.702090
7,4,14,training,14,1,5,1,1,1,0.924087
7,4,15,training,15,5,5,0,0,1,0.847759
7,4,16,training,16,0,6,1,1,1,1.564357
7,4,17,training,17,1,1,0,0,1,0.437530
7,4,18,training,18,1,5,1,1,1,0.486249
7,4,19,training,19,6,6,0,0,1,2.930949
7,4,20,training,20,1,5,1,1,1,2.759048
7,4,21,training,21,0,0,0,0,1,0.668829
7,4,22,training,22,5,5,0,0,1,1.062153
7,4,23,training,23,0,6,1,1,1,3.059717
7,4,24,training,24,0,6,1,1,1,0.457026
7,4,25,training,25,1,1,0,0,1,0.525766
7,4,26,training,26,5,5,0,0,1,0.892058
7,4,27,training,27,1,5,1,1,1,0.477853
7,4,28,training,28,0,6,1,1,1,0.929448
7,4,29,training,29,6,6,0,0,1,0.495199
7,4,30,training,30,0,6,1,1,1,0.871120
7,4,31,training,31,0,0,0,0,1,0.523408
7,4,32,training,32,1,5,1,1,1,0.725048
7,4,33,training,33,6,6,0,0,1,0.796109
7,4,34,training,34,1,1,0,0,1,0.658894
7,4,35,training,35,0,6,1,1,1,1.239177
7,4,36,training,36,1,5,1,1,1,0.895487
7,4,37,training,37,0,0,0,0,1,2.784578
7,4,38,training,38,1,5,1,1,1,0.326024
7,4,39,training,39,5,5,0,0,1,0.792661
7,4,40,training,40,0,6,1,1,1,0.426238
7,4,41,training,41,6,6,0,0,1,0.655117
7,4,42,training,42,5,5,0,0,1,0.401991
7,4,43,training,43,1,5,1,1,1,0.724726
7,4,44,training,44,1,1,0,0,1,0.887223
7,4,45,training,45,0,6,1,1,1,1.785093
7,4,46,training,46,1,5,1,1,1,1.713242
7,4,47,training,47,0,0,0,0,1,0.305690
7,4,48,training,48,0,6,1,1,1,0.590696
7,4,49,training,49,0,0,0,0,1,0.964491
7,4,50,training,50,1,5,1,1,1,0.528085
7,4,51,training,51,6,6,0,0,1,0.304540
7,4,52,training,52,5,5,0,0,1,0.819058
7,4,53,training,53,1,5,1,1,1,0.662049
7,4,54,training,54,1,1,0,0,1,0.607261
7,4,55,training,55,0,6,1,1,1,0.439786
7,4,56,training,56,0,6,1,1,1,0.468759
7,4,57,training,57,0,0,0,0,1,1.045270
7,4,58,training,58,0,6,1,1,1,0.532190
7,4,59,training,59,1,1,0,0,1,0.839195
7,4,60,training,60,0,6,1,1,1,0.544915
7,4,61,training,61,1,5,1,1,1,0.376071
7,4,62,training,62,1,5,1,1,1,0.390812
7,4,63,training,63,5,5,0,0,1,1.509850
7,4,64,training,64,6,6,0,0,1,9.086577
7,4,65,training,65,1,5,1,1,1,0.638152
7,4,66,training,66,0,6,1,1,1,0.387078
7,4,67,training,67,0,0,0,0,1,0.493931
7,4,68,training,68,1,1,0,0,1,0.773296
7,4,69,training,69,5,5,0,0,1,0.437118
7,4,70,training,70,1,5,1,1,1,0.497076
7,4,71,training,71,0,6,1,1,1,0.305248
7,4,72,training,72,6,6,0,0,1,0.797115
7,4,73,training,73,6,6,0,0,1,0.804108
7,4,74,training,74,0,6,1,1,1,0.530302
7,4,75,training,75,1,1,0,0,1,0.592787
7,4,76,training,76,0,6,1,1,1,0.922133
7,4,77,training,77,5,5,0,0,1,0.753029
7,4,78,training,78,1,5,1,1,1,0.350226
7,4,79,training,79,0,0,0,0,1,0.387042
7,4,80,training,80,1,5,1,1,1,0.446860
7,4,81,training,81,6,6,0,0,1,0.364856
7,4,82,training,82,1,5,1,1,1,0.547491
7,4,83,training,83,1,5,1,1,1,0.563225
7,4,84,training,84,0,0,0,0,1,0.388736
7,4,85,training,85,1,1,0,0,1,0.361695
7,4,86,training,86,0,6,1,1,1,0.267560
7,4,87,training,87,0,6,1,1,1,0.287908
7,4,88,training,88,5,5,0,0,1,0.292564
7,4,89,training,89,0,6,1,1,1,0.607502
7,4,90,training,90,5,5,0,0,1,0.483530
7,4,91,training,91,0,6,1,1,1,0.613106
7,4,92,training,92,1,5,1,1,1,0.391126
7,4,93,training,93,0,0,0,0,1,0.952939
7,4,94,training,94,6,6,0,0,1,0.779504
7,4,95,training,95,1,1,0,0,1,0.630549
7,4,96,training,96,1,5,1,1,1,0.531091
7,4,97,generalization,1,6,2,0,NaN,NaN,0.590606
7,4,98,generalization,2,4,1,1,NaN,NaN,10.427238
7,4,99,generalization,3,1,1,0,NaN,NaN,0.447447
7,4,100,generalization,4,5,5,0,NaN,NaN,0.299451
7,4,101,generalization,5,1,5,1,NaN,NaN,0.419814
7,4,102,generalization,6,5,2,1,NaN,NaN,0.751449
7,4,103,generalization,7,6,0,1,NaN,NaN,0.659412
7,4,104,generalization,8,0,6,1,NaN,NaN,0.716867
7,4,105,generalization,9,5,0,1,NaN,NaN,0.312130
7,4,106,generalization,10,6,1,1,NaN,NaN,0.344905
7,4,107,generalization,11,4,0,1,NaN,NaN,0.386235
7,4,108,generalization,12,6,6,0,NaN,NaN,2.605174
7,4,109,generalization,13,5,1,1,NaN,NaN,2.072872
7,4,110,generalization,14,4,2,1,NaN,NaN,2.054810
7,4,111,generalization,15,0,0,0,NaN,NaN,0.708408
8,3,1,training,1,0,6,0,1,0,3.192011
8,3,2,training,2,1,5,0,1,0,1.617957
8,3,3,training,3,1,5,1,1,1,0.710477
8,3,4,training,4,6,6,0,0,1,1.044653
8,3,5,training,5,5,5,0,0,1,0.972977
8,3,6,training,6,1,1,1,0,0,3.032538
8,3,7,training,7,0,6,0,1,0,1.072177
8,3,8,training,8,0,0,0,0,1,1.876763
8,3,9,training,9,0,6,1,1,1,1.744047
8,3,10,training,10,0,6,1,1,1,2.159171
8,3,11,training,11,5,5,1,0,0,2.104827
8,3,12,training,12,0,0,0,0,1,1.730330
8,3,13,training,13,1,1,0,0,1,0.474320
8,3,14,training,14,1,5,1,1,1,4.774469
8,3,15,training,15,1,5,1,1,1,0.754977
8,3,16,training,16,6,6,1,0,0,2.452562
8,3,17,training,17,6,6,0,0,1,0.975285
8,3,18,training,18,0,0,0,0,1,1.198045
8,3,19,training,19,0,6,1,1,1,1.242254
8,3,20,training,20,5,5,0,0,1,1.391962
8,3,21,training,21,1,1,0,0,1,0.723476
8,3,22,training,22,0,6,1,1,1,2.331142
8,3,23,training,23,1,5,1,1,1,0.567738
8,3,24,training,24,1,5,1,1,1,0.603732
8,3,25,training,25,0,0,0,0,1,0.474216
8,3,26,training,26,5,5,0,0,1,3.670770
8,3,27,training,27,0,6,1,1,1,1.006164
8,3,28,training,28,1,5,1,1,1,2.080737
8,3,29,training,29,0,6,1,1,1,0.939533
8,3,30,training,30,1,1,0,0,1,0.555027
8,3,31,training,31,1,5,1,1,1,1.622509
8,3,32,training,32,6,6,0,0,1,0.963349
8,3,33,training,33,1,5,1,1,1,0.731173
8,3,34,training,34,0,0,0,0,1,0.377892
8,3,35,training,35,1,5,1,1,1,0.876558
8,3,36,training,36,0,6,1,1,1,3.084405
8,3,37,training,37,0,6,1,1,1,0.584045
8,3,38,training,38,1,1,0,0,1,0.325579
8,3,39,training,39,5,5,0,0,1,2.146760
8,3,40,training,40,6,6,0,0,1,0.826499
8,3,41,training,41,0,6,1,1,1,0.876430
8,3,42,training,42,0,6,1,1,1,2.212234
8,3,43,training,43,1,1,0,0,1,0.552644
8,3,44,training,44,1,5,1,1,1,0.516585
8,3,45,training,45,0,0,0,0,1,0.420459
8,3,46,training,46,1,5,1,1,1,0.546946
8,3,47,training,47,6,6,0,0,1,0.509363
8,3,48,training,48,5,5,0,0,1,0.583696
8,3,49,training,49,0,6,1,1,1,0.459119
8,3,50,training,50,1,1,0,0,1,0.347793
8,3,51,training,51,0,6,1,1,1,0.654387
8,3,52,training,52,1,5,1,1,1,0.801445
8,3,53,training,53,5,5,0,0,1,0.801816
8,3,54,training,54,6,6,0,0,1,0.444013
8,3,55,training,55,0,0,0,0,1,0.417904
8,3,56,training,56,1,5,1,1,1,1.917649
8,3,57,training,57,0,6,1,1,1,0.389361
8,3,58,training,58,1,5,1,1,1,0.530563
8,3,59,training,59,5,5,0,0,1,1.523969
8,3,60,training,60,6,6,0,0,1,0.453682
8,3,61,training,61,1,1,0,0,1,0.371781
8,3,62,training,62,0,0,0,0,1,0.357167
8,3,63,training,63,1,5,1,1,1,0.883295
8,3,64,training,64,0,6,1,1,1,0.532154
8,3,65,training,65,0,6,1,1,1,0.481518
8,3,66,training,66,5,5,0,0,1,0.587160
8,3,67,training,67,1,5,1,1,1,0.356722
8,3,68,training,68,1,5,1,1,1,0.511006
8,3,69,training,69,0,6,1,1,1,0.874331
8,3,70,training,70,0,0,0,0,1,0.697309
8,3,71,training,71,1,1,0,0,1,0.392554
8,3,72,training,72,6,6,0,0,1,0.592108
8,3,73,training,73,0,0,0,0,1,0.391614
8,3,74,training,74,1,5,1,1,1,0.726320
8,3,75,training,75,6,6,0,0,1,0.493500
8,3,76,training,76,0,6,1,1,1,0.397904
8,3,77,training,77,0,6,1,1,1,0.416911
8,3,78,training,78,1,5,1,1,1,0.551629
8,3,79,training,79,5,5,0,0,1,0.384815
8,3,80,training,80,1,1,0,0,1,0.358388
8,3,81,training,81,0,6,1,1,1,0.338337
8,3,82,training,82,1,5,1,1,1,0.442089
8,3,83,training,83,6,6,0,0,1,0.561229
8,3,84,training,84,0,6,1,1,1,0.318434
8,3,85,training,85,1,5,1,1,1,0.533468
8,3,86,training,86,0,0,0,0,1,0.352733
8,3,87,training,87,5,5,0,0,1,0.538172
8,3,88,training,88,1,1,0,0,1,0.565170
8,3,89,training,89,1,1,0,0,1,0.414587
8,3,90,training,90,0,6,1,1,1,0.695779
8,3,91,training,91,0,6,1,1,1,0.825465
8,3,92,training,92,0,0,0,0,1,0.338007
8,3,93,training,93,1,5,1,1,1,0.423244
8,3,94,training,94,6,6,0,0,1,0.319134
8,3,95,training,95,5,5,0,0,1,0.380479
8,3,96,training,96,1,5,1,1,1,0.430840
8,3,97,generalization,1,1,1,0,NaN,NaN,3.472095
8,3,98,generalization,2,6,2,0,NaN,NaN,0.395372
8,3,99,generalization,3,5,0,0,NaN,NaN,0.318182
8,3,100,generalization,4,4,2,0,NaN,NaN,1.414869
8,3,101,generalization,5,4,0,0,NaN,NaN,4.668401
8,3,102,generalization,6,4,1,1,NaN,NaN,0.644842
8,3,103,generalization,7,0,0,1,NaN,NaN,9.717754
8,3,104,generalization,8,5,2,1,NaN,NaN,2.831842
8,3,105,generalization,9,5,5,1,NaN,NaN,2.529466
8,3,106,generalization,10,0,6,0,NaN,NaN,0.779022
8,3,107,generalization,11,1,5,0,NaN,NaN,1.887699
8,3,108,generalization,12,6,0,1,NaN,NaN,1.128897
8,3,109,generalization,13,5,1,1,NaN,NaN,0.622528
8,3,110,generalization,14,6,1,1,NaN,NaN,4.695200
8,3,111,generalization,15,6,6,1,NaN,NaN,0.534304
9,5,1,training,1,0,6,1,1,1,3.276922
9,5,2,training,2,5,5,1,0,0,2.340087
9,5,3,training,3,1,5,0,1,0,4.349873
9,5,4,training,4,1,1,1,0,0,3.004526
9,5,5,training,5,1,5,0,1,0,3.170049
9,5,6,training,6,0,0,1,0,0,0.831213
9,5,7,training,7,6,6,1,0,0,4.076546
9,5,8,training,8,0,6,1,1,1,3.349793
9,5,9,training,9,0,6,1,1,1,1.099032
9,5,10,training,10,5,5,0,0,1,1.766447
9,5,11,training,11,1,5,1,1,1,4.362956
9,5,12,training,12,0,0,0,0,1,1.780415
9,5,13,training,13,6,6,0,0,1,1.323081
9,5,14,training,14,1,5,1,1,1,5.502850
9,5,15,training,15,0,6,0,1,0,5.092764
9,5,16,training,16,1,1,0,0,1,5.992175
9,5,17,training,17,1,5,1,1,1,7.742383
9,5,18,training,18,0,0,0,0,1,0.967530
9,5,19,training,19,5,5,0,0,1,1.245699
9,5,20,training,20,1,1,0,0,1,0.635578
9,5,21,training,21,1,5,1,1,1,0.837072
9,5,22,training,22,0,6,1,1,1,0.545216
9,5,23,training,23,6,6,1,0,0,0.343090
9,5,24,training,24,0,6,1,1,1,5.680633
9,5,25,training,25,1,1,0,0,1,1.383761
9,5,26,training,26,0,6,1,1,1,6.900581
9,5,27,training,27,1,5,1,1,1,1.525422
9,5,28,training,28,0,0,0,0,1,0.330060
9,5,29,training,29,0,6,1,1,1,0.860764
9,5,30,training,30,5,5,0,0,1,0.882725
9,5,31,training,31,1,5,0,1,0,2.756832
9,5,32,training,32,6,6,0,0,1,6.902580
9,5,33,training,33,1,5,1,1,1,15.393601
9,5,34,training,34,1,5,1,1,1,0.496376
9,5,35,training,35,0,6,1,1,1,2.003707
9,5,36,training,36,0,0,0,0,1,2.089982
9,5,37,training,37,5,5,0,0,1,1.988673
9,5,38,training,38,6,6,0,0,1,3.237300
9,5,39,training,39,1,1,0,0,1,2.746236
9,5,40,training,40,0,6,1,1,1,11.137107
9,5,41,training,41,6,6,0,0,1,2.577815
9,5,42,training,42,0,6,1,1,1,1.626341
9,5,43,training,43,1,1,0,0,1,1.746118
9,5,44,training,44,0,0,0,0,1,1.092728
9,5,45,training,45,0,6,1,1,1,0.843680
9,5,46,training,46,5,5,0,0,1,1.163260
9,5,47,training,47,1,5,1,1,1,7.138173
9,5,48,training,48,1,5,1,1,1,0.751219
9,5,49,training,49,0,6,1,1,1,3.541073
9,5,50,training,50,0,0,0,0,1,0.511063
9,5,51,training,51,1,5,0,1,0,1.899260
9,5,52,training,52,1,1,0,0,1,11.549625
9,5,53,training,53,6,6,0,0,1,0.851436
9,5,54,training,54,1,5,1,1,1,0.794754
9,5,55,training,55,0,6,1,1,1,0.293408
9,5,56,training,56,5,5,0,0,1,3.922354
9,5,57,training,57,1,5,1,1,1,10.141190
9,5,58,training,58,5,5,0,0,1,3.538123
9,5,59,training,59,1,1,0,0,1,8.587486
9,5,60,training,60,6,6,0,0,1,3.278973
9,5,61,training,61,0,6,1,1,1,0.648353
9,5,62,training,62,0,0,0,0,1,0.494733
9,5,63,training,63,1,5,1,1,1,4.406721
9,5,64,training,64,0,6,1,1,1,1.068681
9,5,65,training,65,0,6,1,1,1,0.755220
9,5,66,training,66,1,5,1,1,1,1.163746
9,5,67,training,67,5,5,0,0,1,4.480553
9,5,68,training,68,0,6,1,1,1,1.451841
9,5,69,training,69,0,0,0,0,1,0.372358
9,5,70,training,70,1,5,1,1,1,12.851948
9,5,71,training,71,1,1,0,0,1,0.819638
9,5,72,training,72,6,6,0,0,1,1.039763
9,5,73,training,73,1,5,1,1,1,9.162168
9,5,74,training,74,0,0,0,0,1,7.240115
9,5,75,training,75,0,6,1,1,1,7.426089
9,5,76,training,76,1,1,0,0,1,0.652400
9,5,77,training,77,1,5,1,1,1,1.212410
9,5,78,training,78,0,6,1,1,1,0.840207
9,5,79,training,79,6,6,0,0,1,2.719239
9,5,80,training,80,5,5,0,0,1,2.473485
9,5,81,training,81,0,6,1,1,1,0.603725
9,5,82,training,82,5,5,0,0,1,0.964583
9,5,83,training,83,0,0,0,0,1,0.639218
9,5,84,training,84,1,5,1,1,1,0.904269
9,5,85,training,85,1,1,0,0,1,0.715777
9,5,86,training,86,1,5,1,1,1,1.047269
9,5,87,training,87,6,6,0,0,1,1.057777
9,5,88,training,88,0,6,1,1,1,0.600554
9,5,89,training,89,1,5,1,1,1,1.408446
9,5,90,training,90,0,6,1,1,1,0.567254
9,5,91,training,91,0,0,0,0,1,1.769360
9,5,92,training,92,0,6,1,1,1,4.703927
9,5,93,training,93,6,6,0,0,1,0.501156
9,5,94,training,94,1,1,0,0,1,0.954202
9,5,95,training,95,1,5,1,1,1,2.128169
9,5,96,training,96,5,5,0,0,1,3.285938
9,5,97,generalization,1,0,6,1,NaN,NaN,0.540945
9,5,98,generalization,2,4,2,1,NaN,NaN,9.296136
9,5,99,generalization,3,6,0,1,NaN,NaN,5.358263
9,5,100,generalization,4,0,0,0,NaN,NaN,1.237251
9,5,101,generalization,5,5,1,1,NaN,NaN,0.837701
9,5,102,generalization,6,6,6,0,NaN,NaN,1.476011
9,5,103,generalization,7,5,2,0,NaN,NaN,13.170619
9,5,104,generalization,8,6,2,0,NaN,NaN,0.573212
9,5,105,generalization,9,5,0,1,NaN,NaN,2.292732
9,5,106,generalization,10,4,0,1,NaN,NaN,1.080161
9,5,107,generalization,11,5,5,0,NaN,NaN,1.516235
9,5,108,generalization,12,1,1,0,NaN,NaN,2.787844
9,5,109,generalization,13,4,1,1,NaN,NaN,8.547990
9,5,110,generalization,14,6,1,1,NaN,NaN,11.504262
9,5,111,generalization,15,1,5,1,NaN,NaN,2.263921
10,3,1,training,1,1,5,0,1,0,4.720136
10,3,2,training,2,0,0,0,0,1,0.820462
10,3,3,training,3,5,5,1,0,0,1.745999
10,3,4,training,4,1,5,1,1,1,2.956510
10,3,5,training,5,0,6,1,1,1,1.895838
10,3,6,training,6,6,6,0,0,1,1.582149
10,3,7,training,7,1,1,0,0,1,2.285086
10,3,8,training,8,0,6,1,1,1,1.798484
10,3,9,training,9,1,5,1,1,1,0.915014
10,3,10,training,10,0,6,1,1,1,0.541288
10,3,11,training,11,1,1,0,0,1,0.621665
10,3,12,training,12,6,6,0,0,1,0.888539
10,3,13,training,13,0,6,1,1,1,0.536158
10,3,14,training,14,0,0,0,0,1,0.603882
10,3,15,training,15,1,5,1,1,1,0.462693
10,3,16,training,16,5,5,0,0,1,1.573002
10,3,17,training,17,1,5,1,1,1,1.620624
10,3,18,training,18,0,6,1,1,1,1.059351
10,3,19,training,19,1,1,0,0,1,1.408263
10,3,20,training,20,6,6,0,0,1,1.255414
10,3,21,training,21,0,6,1,1,1,0.396461
10,3,22,training,22,0,0,0,0,1,0.681595
10,3,23,training,23,5,5,0,0,1,0.947986
10,3,24,training,24,1,5,1,1,1,3.492796
10,3,25,training,25,1,1,0,0,1,2.029927
10,3,26,training,26,6,6,0,0,1,0.852369
10,3,27,training,27,1,5,1,1,1,2.402874
10,3,28,training,28,0,6,1,1,1,0.443449
10,3,29,training,29,0,0,0,0,1,0.941079
10,3,30,training,30,1,5,1,1,1,0.979618
10,3,31,training,31,0,6,1,1,1,0.652626
10,3,32,training,32,5,5,0,0,1,1.257721
10,3,33,training,33,0,6,1,1,1,0.648964
10,3,34,training,34,1,5,1,1,1,0.881829
10,3,35,training,35,0,6,1,1,1,1.086012
10,3,36,training,36,1,1,0,0,1,1.675405
10,3,37,training,37,1,5,1,1,1,0.826041
10,3,38,training,38,5,5,0,0,1,1.320208
10,3,39,training,39,6,6,0,0,1,0.541475
10,3,40,training,40,0,0,0,0,1,1.074021
10,3,41,training,41,6,6,0,0,1,0.483286
10,3,42,training,42,1,5,1,1,1,1.407718
10,3,43,training,43,5,5,0,0,1,0.781849
10,3,44,training,44,0,6,1,1,1,1.811194
10,3,45,training,45,1,5,1,1,1,0.791687
10,3,46,training,46,0,0,0,0,1,0.725913
10,3,47,training,47,0,6,1,1,1,4.275845
10,3,48,training,48,1,1,0,0,1,0.947273
10,3,49,training,49,1,5,1,1,1,2.004990
10,3,50,training,50,0,6,1,1,1,3.231857
10,3,51,training,51,0,0,0,0,1,0.993958
10,3,52,training,52,1,1,0,0,1,0.477323
10,3,53,training,53,1,5,1,1,1,0.803104
10,3,54,training,54,6,6,0,0,1,0.822487
10,3,55,training,55,5,5,0,0,1,0.763148
10,3,56,training,56,0,6,1,1,1,0.747196
10,3,57,training,57,5,5,0,0,1,0.552461
10,3,58,training,58,0,0,0,0,1,0.525573
10,3,59,training,59,6,6,0,0,1,0.427029
10,3,60,training,60,1,5,1,1,1,0.986593
10,3,61,training,61,1,1,0,0,1,0.897860
10,3,62,training,62,1,5,1,1,1,0.605166
10,3,63,training,63,0,6,1,1,1,0.382589
10,3,64,training,64,0,6,1,1,1,0.307108
10,3,65,training,65,6,6,0,0,1,0.476846
10,3,66,training,66,0,0,0,0,1,0.783975
10,3,67,training,67,5,5,0,0,1,0.338921
10,3,68,training,68,1,1,0,0,1,0.310227
10,3,69,training,69,1,5,1,1,1,0.948683
10,3,70,training,70,0,6,1,1,1,0.365198
10,3,71,training,71,0,6,1,1,1,0.410723
10,3,72,training,72,1,5,1,1,1,0.492435
10,3,73,training,73,0,6,1,1,1,0.568628
10,3,74,training,74,1,1,0,0,1,0.580302
10,3,75,training,75,5,5,0,0,1,0.948970
10,3,76,training,76,1,5,1,1,1,0.769098
10,3,77,training,77,6,6,0,0,1,1.623097
10,3,78,training,78,1,5,1,1,1,0.554828
10,3,79,training,79,0,6,1,1,1,0.613983
10,3,80,training,80,0,0,0,0,1,0.690686
10,3,81,training,81,6,6,0,0,1,2.490314
10,3,82,training,82,0,6,1,1,1,1.105107
10,3,83,training,83,5,5,0,0,1,0.888605
10,3,84,training,84,1,5,1,1,1,0.979574
10,3,85,training,85,1,5,1,1,1,0.796246
10,3,86,training,86,0,0,0,0,1,1.058916
10,3,87,training,87,1,1,0,0,1,1.143289
10,3,88,training,88,0,6,1,1,1,1.479863
10,3,89,training,89,5,5,0,0,1,0.974936
10,3,90,training,90,1,5,1,1,1,0.712380
10,3,91,training,91,0,6,1,1,1,2.341919
10,3,92,training,92,1,1,0,0,1,1.630418
10,3,93,training,93,0,6,1,1,1,1.098579
10,3,94,training,94,0,0,0,0,1,0.868972
10,3,95,training,95,1,5,0,1,0,1.383198
10,3,96,training,96,6,6,0,0,1,1.082266
10,3,97,generalization,1,1,5,1,NaN,NaN,3.043812
10,3,98,generalization,2,5,1,0,NaN,NaN,0.871529
10,3,99,generalization,3,6,6,0,NaN,NaN,0.894783
10,3,100,generalization,4,4,2,0,NaN,NaN,0.590326
10,3,101,generalization,5,5,2,0,NaN,NaN,0.718368
10,3,102,generalization,6,0,0,0,NaN,NaN,0.577418
10,3,103,generalization,7,1,1,0,NaN,NaN,0.545193
10,3,104,generalization,8,6,1,0,NaN,NaN,0.519859
10,3,105,generalization,9,0,6,1,NaN,NaN,0.613897
10,3,106,generalization,10,6,0,0,NaN,NaN,0.533846
10,3,107,generalization,11,5,0,0,NaN,NaN,1.020188
10,3,108,generalization,12,5,5,0,NaN,NaN,0.711010
10,3,109,generalization,13,4,1,0,NaN,NaN,0.586085
10,3,110,generalization,14,6,2,0,NaN,NaN,0.506174
10,3,111,generalization,15,4,0,0,NaN,NaN,0.527789
11,2,1,training,1,5,5,1,0,0,2.496539
11,2,2,training,2,0,0,1,0,0,2.136146
11,2,3,training,3,0,6,1,1,1,3.203860
11,2,4,training,4,1,1,0,0,1,0.836299
11,2,5,training,5,6,6,0,0,1,1.067261
11,2,6,training,6,0,6,1,1,1,1.051717
11,2,7,training,7,1,5,1,1,1,1.067231
11,2,8,training,8,1,5,1,1,1,0.394973
11,2,9,training,9,6,6,0,0,1,0.732481
11,2,10,training,10,0,6,1,1,1,0.396459
11,2,11,training,11,1,1,0,0,1,0.339413
11,2,12,training,12,0,0,0,0,1,0.358086
11,2,13,training,13,0,6,1,1,1,0.867352
11,2,14,training,14,1,5,1,1,1,0.163631
11,2,15,training,15,5,5,0,0,1,0.411880
11,2,16,training,16,1,5,1,1,1,0.216625
11,2,17,training,17,0,0,0,0,1,0.676500
11,2,18,training,18,6,6,0,0,1,1.167061
11,2,19,training,19,1,5,1,1,1,0.617593
11,2,20,training,20,5,5,0,0,1,1.136036
11,2,21,training,21,0,6,1,1,1,1.438764
11,2,22,training,22,0,6,1,1,1,0.089713
11,2,23,training,23,1,1,0,0,1,0.235787
11,2,24,training,24,1,5,1,1,1,0.152972
11,2,25,training,25,1,5,1,1,1,0.385524
11,2,26,training,26,1,5,1,1,1,0.039167
11,2,27,training,27,0,6,1,1,1,0.514258
11,2,28,training,28,0,0,0,0,1,0.631312
11,2,29,training,29,1,1,0,0,1,0.430831
11,2,30,training,30,5,5,0,0,1,0.421263
11,2,31,training,31,6,6,0,0,1,0.503319
11,2,32,training,32,0,6,1,1,1,0.711714
11,2,33,training,33,1,5,1,1,1,0.000302
11,2,34,training,34,6,6,0,0,1,0.527574
11,2,35,training,35,1,1,0,0,1,0.505367
11,2,36,training,36,1,5,1,1,1,0.131208
11,2,37,training,37,0,0,0,0,1,0.009749
11,2,38,training,38,0,6,1,1,1,0.096196
11,2,39,training,39,0,6,1,1,1,0.566081
11,2,40,training,40,5,5,0,0,1,0.099403
11,2,41,training,41,0,6,1,1,1,1.280285
11,2,42,training,42,5,5,0,0,1,0.550098
11,2,43,training,43,1,5,1,1,1,0.161082
11,2,44,training,44,1,1,0,0,1,0.126573
11,2,45,training,45,0,6,1,1,1,0.113977
11,2,46,training,46,1,5,1,1,1,0.359954
11,2,47,training,47,0,0,0,0,1,0.258245
11,2,48,training,48,6,6,0,0,1,0.596189
11,2,49,training,49,0,6,1,1,1,0.067665
11,2,50,training,50,1,5,1,1,1,0.731287
11,2,51,training,51,6,6,0,0,1,0.155232
11,2,52,training,52,0,6,1,1,1,1.621125
11,2,53,training,53,5,5,0,0,1,0.344472
11,2,54,training,54,1,1,0,0,1,1.227048
11,2,55,training,55,1,5,1,1,1,1.635419
11,2,56,training,56,0,0,0,0,1,0.515145
11,2,57,training,57,6,6,0,0,1,1.565564
11,2,58,training,58,5,5,0,0,1,0.690041
11,2,59,training,59,1,5,1,1,1,0.507062
11,2,60,training,60,1,1,0,0,1,0.488978
11,2,61,training,61,1,5,1,1,1,0.286661
11,2,62,training,62,0,0,0,0,1,0.120584
11,2,63,training,63,0,6,1,1,1,0.656040
11,2,64,training,64,0,6,1,1,1,0.211787
11,2,65,training,65,5,5,0,0,1,0.397090
11,2,66,training,66,0,6,1,1,1,0.163743
11,2,67,training,67,1,1,0,0,1,0.058323
11,2,68,training,68,1,5,1,1,1,0.559169
11,2,69,training,69,6,6,0,0,1,0.852247
11,2,70,training,70,0,6,1,1,1,0.118164
11,2,71,training,71,1,5,1,1,1,0.077952
11,2,72,training,72,0,0,0,0,1,0.321043
11,2,73,training,73,0,6,1,1,1,0.300966
11,2,74,training,74,0,6,1,1,1,1.134084
11,2,75,training,75,1,5,1,1,1,0.249414
11,2,76,training,76,1,5,1,1,1,0.217987
11,2,77,training,77,1,1,0,0,1,0.794883
11,2,78,training,78,0,0,0,0,1,0.227901
11,2,79,training,79,5,5,0,0,1,0.696374
11,2,80,training,80,6,6,0,0,1,0.377273
11,2,81,training,81,0,6,1,1,1,0.595826
11,2,82,training,82,0,0,0,0,1,0.861796
11,2,83,training,83,1,1,0,0,1,0.282371
11,2,84,training,84,1,5,1,1,1,0.599419
11,2,85,training,85,1,5,1,1,1,0.297816
11,2,86,training,86,0,6,1,1,1,0.081863
11,2,87,training,87,6,6,0,0,1,0.662345
11,2,88,training,88,5,5,0,0,1,0.575516
11,2,89,training,89,0,6,1,1,1,0.304806
11,2,90,training,90,1,1,0,0,1,0.124944
11,2,91,training,91,6,6,0,0,1,0.687920
11,2,92,training,92,0,0,0,0,1,0.146900
11,2,93,training,93,1,5,1,1,1,0.192545
11,2,94,training,94,5,5,0,0,1,0.245665
11,2,95,training,95,0,6,1,1,1,0.251578
11,2,96,training,96,1,5,1,1,1,0.210573
11,2,97,generalization,1,0,6,1,NaN,NaN,3.248263
11,2,98,generalization,2,6,1,0,NaN,NaN,0.449573
11,2,99,generalization,3,1,1,0,NaN,NaN,1.574063
11,2,100,generalization,4,5,2,1,NaN,NaN,0.743084
11,2,101,generalization,5,4,2,1,NaN,NaN,0.467140
11,2,102,generalization,6,5,5,0,NaN,NaN,0.495866
11,2,103,generalization,7,4,1,1,NaN,NaN,0.861546
11,2,104,generalization,8,6,0,1,NaN,NaN,0.268261
11,2,105,generalization,9,1,5,1,NaN,NaN,1.059927
11,2,106,generalization,10,6,2,1,NaN,NaN,0.271796
11,2,107,generalization,11,5,1,1,NaN,NaN,0.199455
11,2,108,generalization,12,6,6,0,NaN,NaN,1.381433
11,2,109,generalization,13,4,0,1,NaN,NaN,0.682119
11,2,110,generalization,14,0,0,0,NaN,NaN,0.556489
11,2,111,generalization,15,5,0,1,NaN,NaN,2.019762
12,4,1,training,1,1,1,0,0,1,5.755935
12,4,2,training,2,0,6,1,1,1,1.676036
12,4,3,training,3,1,5,0,1,0,5.785913
12,4,4,training,4,1,5,1,1,1,1.323871
12,4,5,training,5,5,5,0,0,1,1.520627
12,4,6,training,6,6,6,1,0,0,2.611989
12,4,7,training,7,0,0,0,0,1,2.499788
12,4,8,training,8,0,6,1,1,1,1.726270
12,4,9,training,9,6,6,0,0,1,1.771659
12,4,10,training,10,1,5,1,1,1,0.696910
12,4,11,training,11,0,6,1,1,1,4.043415
12,4,12,training,12,5,5,0,0,1,1.103902
12,4,13,training,13,1,1,0,0,1,2.656154
12,4,14,training,14,1,5,1,1,1,0.733308
12,4,15,training,15,0,0,0,0,1,2.305724
12,4,16,training,16,0,6,0,1,0,2.261421
12,4,17,training,17,1,1,0,0,1,0.891134
12,4,18,training,18,1,5,1,1,1,0.796444
12,4,19,training,19,0,6,1,1,1,2.058317
12,4,20,training,20,5,5,0,0,1,0.459415
12,4,21,training,21,0,0,0,0,1,0.719788
12,4,22,training,22,6,6,0,0,1,1.617114
12,4,23,training,23,1,5,1,1,1,1.138068
12,4,24,training,24,0,6,1,1,1,5.265578
12,4,25,training,25,0,6,1,1,1,0.692746
12,4,26,training,26,1,1,0,0,1,0.390097
12,4,27,training,27,5,5,0,0,1,1.592648
12,4,28,training,28,0,0,0,0,1,0.382012
12,4,29,training,29,0,6,1,1,1,0.621972
12,4,30,training,30,1,5,1,1,1,0.652100
12,4,31,training,31,1,5,1,1,1,0.717466
12,4,32,training,32,6,6,0,0,1,0.364574
12,4,33,training,33,0,0,0,0,1,0.396659
12,4,34,training,34,1,5,1,1,1,0.686679
12,4,35,training,35,1,1,1,0,0,2.544932
12,4,36,training,36,0,6,0,1,0,0.653243
12,4,37,training,37,6,6,1,0,0,0.729985
12,4,38,training,38,5,5,1,0,0,0.477879
12,4,39,training,39,1,5,0,1,0,2.699194
12,4,40,training,40,0,6,0,1,0,1.692655
12,4,41,training,41,1,5,0,1,0,0.837398
12,4,42,training,42,1,5,0,1,0,0.537121
12,4,43,training,43,0,6,0,1,0,0.375040
12,4,44,training,44,1,1,1,0,0,0.536739
12,4,45,training,45,0,0,1,0,0,0.398112
12,4,46,training,46,0,6,0,1,0,0.526672
12,4,47,training,47,5,5,1,0,0,0.922440
12,4,48,training,48,6,6,1,0,0,2.133316
12,4,49,training,49,1,5,0,1,0,1.429157
12,4,50,training,50,0,0,1,0,0,0.631313
12,4,51,training,51,6,6,1,0,0,2.170545
12,4,52,training,52,0,6,1,1,1,1.171299
12,4,53,training,53,0,6,1,1,1,0.778075
12,4,54,training,54,5,5,0,0,1,0.664970
12,4,55,training,55,1,5,1,1,1,1.190280
12,4,56,training,56,1,1,0,0,1,0.523896
12,4,57,training,57,1,5,1,1,1,3.780704
12,4,58,training,58,1,1,0,0,1,1.080911
12,4,59,training,59,5,5,1,0,0,0.512566
12,4,60,training,60,1,5,1,1,1,0.406831
12,4,61,training,61,0,6,1,1,1,0.621586
12,4,62,training,62,0,6,1,1,1,1.348079
12,4,63,training,63,0,0,0,0,1,0.540343
12,4,64,training,64,6,6,0,0,1,0.670329
12,4,65,training,65,5,5,0,0,1,1.483290
12,4,66,training,66,1,5,1,1,1,0.506782
12,4,67,training,67,1,1,0,0,1,0.396621
12,4,68,training,68,1,5,1,1,1,0.361599
12,4,69,training,69,6,6,0,0,1,0.299045
12,4,70,training,70,0,0,0,0,1,0.549723
12,4,71,training,71,0,6,1,1,1,0.389673
12,4,72,training,72,0,6,1,1,1,11.739291
12,4,73,training,73,0,0,0,0,1,1.226214
12,4,74,training,74,5,5,1,0,0,0.644338
12,4,75,training,75,0,6,1,1,1,0.489489
12,4,76,training,76,0,6,1,1,1,0.600987
12,4,77,training,77,6,6,0,0,1,0.254584
12,4,78,training,78,1,1,0,0,1,0.379482
12,4,79,training,79,1,5,1,1,1,0.330631
12,4,80,training,80,1,5,1,1,1,0.267712
12,4,81,training,81,0,6,1,1,1,0.341292
12,4,82,training,82,5,5,0,0,1,0.412267
12,4,83,training,83,1,1,0,0,1,0.290181
12,4,84,training,84,1,5,1,1,1,0.308112
12,4,85,training,85,0,6,1,1,1,23.422087
12,4,86,training,86,6,6,0,0,1,0.346820
12,4,87,training,87,1,5,1,1,1,0.396737
12,4,88,training,88,0,0,0,0,1,0.850349
12,4,89,training,89,0,6,1,1,1,0.363143
12,4,90,training,90,5,5,0,0,1,0.372134
12,4,91,training,91,6,6,0,0,1,0.340218
12,4,92,training,92,1,5,1,1,1,2.432717
12,4,93,training,93,1,5,1,1,1,0.292533
12,4,94,training,94,0,6,1,1,1,0.359798
12,4,95,training,95,1,1,0,0,1,0.858648
12,4,96,training,96,0,0,0,0,1,0.239275
12,4,97,generalization,1,1,1,0,NaN,NaN,1.091873
12,4,98,generalization,2,6,1,0,NaN,NaN,1.344650
12,4,99,generalization,3,6,6,0,NaN,NaN,0.675868
12,4,100,generalization,4,6,0,0,NaN,NaN,0.405773
12,4,101,generalization,5,5,1,0,NaN,NaN,0.408931
12,4,102,generalization,6,0,0,0,NaN,NaN,0.556234
12,4,103,generalization,7,0,6,1,NaN,NaN,0.691276
12,4,104,generalization,8,1,5,1,NaN,NaN,0.333798
12,4,105,generalization,9,4,1,0,NaN,NaN,0.342989
12,4,106,generalization,10,4,0,0,NaN,NaN,0.320482
12,4,107,generalization,11,6,2,0,NaN,NaN,1.049266
12,4,108,generalization,12,5,2,0,NaN,NaN,0.276799
12,4,109,generalization,13,5,5,0,NaN,NaN,0.636754
12,4,110,generalization,14,4,2,0,NaN,NaN,0.757973
12,4,111,generalization,15,5,0,0,NaN,NaN,0.418466
13,5,1,training,1,0,0,1,0,0,2.370806
13,5,2,training,2,0,6,1,1,1,1.921039
13,5,3,training,3,5,5,1,0,0,2.197103
13,5,4,training,4,1,5,0,1,0,1.007876
13,5,5,training,5,1,1,0,0,1,2.343727
13,5,6,training,6,6,6,1,0,0,0.858224
13,5,7,training,7,0,6,1,1,1,0.971788
13,5,8,training,8,1,5,0,1,0,2.932416
13,5,9,training,9,6,6,0,0,1,2.129446
13,5,10,training,10,0,0,1,0,0,1.600589
13,5,11,training,11,5,5,0,0,1,3.173121
13,5,12,training,12,1,5,0,1,0,1.238793
13,5,13,training,13,1,5,1,1,1,0.518331
13,5,14,training,14,0,6,1,1,1,0.661711
13,5,15,training,15,0,6,1,1,1,1.507824
13,5,16,training,16,1,1,0,0,1,3.371089
13,5,17,training,17,6,6,0,0,1,1.050425
13,5,18,training,18,1,5,1,1,1,1.350753
13,5,19,training,19,0,0,0,0,1,0.655621
13,5,20,training,20,0,6,1,1,1,1.403014
13,5,21,training,21,1,1,0,0,1,1.296826
13,5,22,training,22,5,5,0,0,1,0.740670
13,5,23,training,23,1,5,1,1,1,0.394964
13,5,24,training,24,0,6,1,1,1,0.415409
13,5,25,training,25,5,5,0,0,1,0.363387
13,5,26,training,26,1,5,1,1,1,0.567663
13,5,27,training,27,1,5,1,1,1,0.443482
13,5,28,training,28,6,6,0,0,1,0.328868
13,5,29,training,29,1,1,0,0,1,0.691182
13,5,30,training,30,0,0,0,0,1,0.475709
13,5,31,training,31,0,6,1,1,1,0.346463
13,5,32,training,32,0,6,1,1,1,0.343545
13,5,33,training,33,1,5,1,1,1,0.357883
13,5,34,training,34,1,5,1,1,1,0.339705
13,5,35,training,35,1,1,0,0,1,1.847998
13,5,36,training,36,6,6,0,0,1,0.457945
13,5,37,training,37,5,5,0,0,1,0.413769
13,5,38,training,38,0,6,1,1,1,1.373019
13,5,39,training,39,0,6,1,1,1,0.334599
13,5,40,training,40,0,0,0,0,1,0.338727
13,5,41,training,41,1,5,1,1,1,0.261633
13,5,42,training,42,5,5,0,0,1,0.578554
13,5,43,training,43,1,1,0,0,1,0.672534
13,5,44,training,44,6,6,0,0,1,0.875965
13,5,45,training,45,1,5,1,1,1,1.843331
13,5,46,training,46,0,6,1,1,1,0.760060
13,5,47,training,47,0,6,1,1,1,0.571753
13,5,48,training,48,0,0,0,0,1,0.502705
13,5,49,training,49,0,6,1,1,1,0.410005
13,5,50,training,50,6,6,0,0,1,0.679790
13,5,51,training,51,1,5,1,1,1,0.335896
13,5,52,training,52,5,5,0,0,1,0.642717
13,5,53,training,53,0,0,0,0,1,0.710397
13,5,54,training,54,0,6,1,1,1,0.496879
13,5,55,training,55,1,1,0,0,1,2.763645
13,5,56,training,56,1,5,1,1,1,0.908511
13,5,57,training,57,6,6,0,0,1,0.932104
13,5,58,training,58,0,0,0,0,1,0.676609
13,5,59,training,59,1,1,0,0,1,0.827599
13,5,60,training,60,5,5,1,0,0,0.587780
13,5,61,training,61,0,6,1,1,1,0.644804
13,5,62,training,62,1,5,1,1,1,0.498602
13,5,63,training,63,0,6,1,1,1,1.014042
13,5,64,training,64,1,5,1,1,1,0.360263
13,5,65,training,65,0,6,1,1,1,0.272143
13,5,66,training,66,1,5,1,1,1,0.286542
13,5,67,training,67,0,0,0,0,1,0.571288
13,5,68,training,68,0,6,1,1,1,0.568466
13,5,69,training,69,1,1,0,0,1,0.936707
13,5,70,training,70,5,5,0,0,1,4.261979
13,5,71,training,71,1,5,1,1,1,0.683013
13,5,72,training,72,6,6,0,0,1,0.563525
13,5,73,training,73,0,6,1,1,1,0.467967
13,5,74,training,74,1,5,1,1,1,0.531893
13,5,75,training,75,1,5,1,1,1,0.358330
13,5,76,training,76,5,5,0,0,1,0.552575
13,5,77,training,77,0,6,1,1,1,0.758127
13,5,78,training,78,1,1,0,0,1,0.394265
13,5,79,training,79,0,0,0,0,1,0.292037
13,5,80,training,80,6,6,0,0,1,0.536691
13,5,81,training,81,1,5,1,1,1,1.037829
13,5,82,training,82,0,6,1,1,1,0.627205
13,5,83,training,83,0,6,1,1,1,0.311115
13,5,84,training,84,5,5,0,0,1,0.999598
13,5,85,training,85,1,1,0,0,1,0.476756
13,5,86,training,86,1,5,1,1,1,0.652443
13,5,87,training,87,6,6,0,0,1,2.344711
13,5,88,training,88,0,0,0,0,1,0.336276
13,5,89,training,89,0,6,1,1,1,0.269763
13,5,90,training,90,6,6,0,0,1,0.353410
13,5,91,training,91,1,1,0,0,1,0.485746
13,5,92,training,92,0,0,0,0,1,0.216099
13,5,93,training,93,1,5,1,1,1,0.502016
13,5,94,training,94,0,6,1,1,1,0.267348
13,5,95,training,95,1,5,1,1,1,1.469884
13,5,96,training,96,5,5,0,0,1,0.914310
13,5,97,generalization,1,5,5,0,NaN,NaN,1.291671
13,5,98,generalization,2,5,1,0,NaN,NaN,0.434669
13,5,99,generalization,3,6,1,0,NaN,NaN,0.350539
13,5,100,generalization,4,0,6,1,NaN,NaN,0.456052
13,5,101,generalization,5,1,1,0,NaN,NaN,0.460388
13,5,102,generalization,6,6,2,0,NaN,NaN,0.432875
13,5,103,generalization,7,1,5,1,NaN,NaN,0.780767
13,5,104,generalization,8,4,0,0,NaN,NaN,0.449338
13,5,105,generalization,9,6,0,0,NaN,NaN,0.613621
13,5,106,generalization,10,6,6,0,NaN,NaN,0.621574
13,5,107,generalization,11,0,0,0,NaN,NaN,0.678270
13,5,108,generalization,12,5,0,0,NaN,NaN,0.840300
13,5,109,generalization,13,4,2,0,NaN,NaN,1.246823
13,5,110,generalization,14,4,1,0,NaN,NaN,0.383177
13,5,111,generalization,15,5,2,0,NaN,NaN,0.426021
14,2,1,training,1,1,5,0,1,0,2.871804
14,2,2,training,2,6,6,1,0,0,2.042944
14,2,3,training,3,5,5,1,0,0,4.809708
14,2,4,training,4,0,6,1,1,1,1.483169
14,2,5,training,5,1,1,1,0,0,0.733047
14,2,6,training,6,0,0,0,0,1,1.235872
14,2,7,training,7,1,5,1,1,1,4.166472
14,2,8,training,8,0,6,1,1,1,0.629471
14,2,9,training,9,6,6,0,0,1,0.565808
14,2,10,training,10,1,5,1,1,1,1.284132
14,2,11,training,11,1,5,1,1,1,1.013661
14,2,12,training,12,0,6,1,1,1,0.659378
14,2,13,training,13,0,0,0,0,1,1.864395
14,2,14,training,14,1,1,0,0,1,0.670963
14,2,15,training,15,5,5,0,0,1,1.793288
14,2,16,training,16,0,6,1,1,1,1.501999
14,2,17,training,17,1,5,1,1,1,2.129668
14,2,18,training,18,0,0,0,0,1,1.290902
14,2,19,training,19,5,5,0,0,1,3.194656
14,2,20,training,20,6,6,0,0,1,1.260281
14,2,21,training,21,1,5,1,1,1,1.181545
14,2,22,training,22,0,6,1,1,1,2.187959
14,2,23,training,23,0,6,1,1,1,0.534701
14,2,24,training,24,1,1,0,0,1,1.330409
14,2,25,training,25,1,5,1,1,1,1.682284
14,2,26,training,26,6,6,0,0,1,1.027453
14,2,27,training,27,5,5,0,0,1,1.682301
14,2,28,training,28,1,5,1,1,1,0.554976
14,2,29,training,29,0,0,0,0,1,0.523784
14,2,30,training,30,1,1,0,0,1,0.386524
14,2,31,training,31,0,6,1,1,1,0.772784
14,2,32,training,32,0,6,1,1,1,0.987411
14,2,33,training,33,0,6,1,1,1,0.448148
14,2,34,training,34,1,1,0,0,1,0.856387
14,2,35,training,35,1,5,1,1,1,1.691122
14,2,36,training,36,0,6,1,1,1,0.469724
14,2,37,training,37,1,5,1,1,1,0.695558
14,2,38,training,38,5,5,0,0,1,0.746518
14,2,39,training,39,6,6,0,0,1,1.033020
14,2,40,training,40,0,0,0,0,1,0.432599
14,2,41,training,41,0,6,1,1,1,2.504489
14,2,42,training,42,1,1,0,0,1,0.793311
14,2,43,training,43,1,5,1,1,1,1.854629
14,2,44,training,44,6,6,0,0,1,0.322925
14,2,45,training,45,0,0,0,0,1,0.678252
14,2,46,training,46,1,5,1,1,1,0.630218
14,2,47,training,47,5,5,0,0,1,0.885921
14,2,48,training,48,0,6,1,1,1,0.645173
14,2,49,training,49,1,5,1,1,1,2.358684
14,2,50,training,50,1,5,1,1,1,1.011520
14,2,51,training,51,0,6,1,1,1,0.443821
14,2,52,training,52,5,5,0,0,1,0.385589
14,2,53,training,53,1,1,0,0,1,1.854148
14,2,54,training,54,0,0,0,0,1,0.432122
14,2,55,training,55,0,6,1,1,1,0.343305
14,2,56,training,56,6,6,0,0,1,0.324221
14,2,57,training,57,0,0,0,0,1,0.331720
14,2,58,training,58,6,6,0,0,1,0.671179
14,2,59,training,59,1,1,0,0,1,0.561672
14,2,60,training,60,1,5,1,1,1,0.907551
14,2,61,training,61,0,6,1,1,1,1.758705
14,2,62,training,62,0,6,1,1,1,1.458187
14,2,63,training,63,5,5,0,0,1,0.485560
14,2,64,training,64,1,5,1,1,1,0.767926
14,2,65,training,65,0,6,1,1,1,0.724645
14,2,66,training,66,1,5,1,1,1,0.293911
14,2,67,training,67,6,6,0,0,1,0.388898
14,2,68,training,68,0,6,1,1,1,0.708044
14,2,69,training,69,1,1,0,0,1,0.443279
14,2,70,training,70,1,5,1,1,1,0.743247
14,2,71,training,71,0,0,0,0,1,0.288484
14,2,72,training,72,5,5,0,0,1,0.310722
14,2,73,training,73,1,5,1,1,1,0.419272
14,2,74,training,74,5,5,1,0,0,0.497209
14,2,75,training,75,6,6,0,0,1,0.358181
14,2,76,training,76,1,1,0,0,1,0.794178
14,2,77,training,77,0,0,0,0,1,3.073026
14,2,78,training,78,0,6,1,1,1,1.175585
14,2,79,training,79,0,6,1,1,1,0.443458
14,2,80,training,80,1,5,1,1,1,1.956814
14,2,81,training,81,1,1,0,0,1,1.336891
14,2,82,training,82,0,6,1,1,1,3.209827
14,2,83,training,83,1,5,1,1,1,1.904747
14,2,84,training,84,0,6,1,1,1,0.428011
14,2,85,training,85,0,0,0,0,1,1.471729
14,2,86,training,86,5,5,0,0,1,0.569032
14,2,87,training,87,1,5,1,1,1,0.542631
14,2,88,training,88,6,6,0,0,1,0.634623
14,2,89,training,89,1,5,1,1,1,0.800570
14,2,90,training,90,0,0,0,0,1,0.548044
14,2,91,training,91,6,6,0,0,1,0.363318
14,2,92,training,92,0,6,1,1,1,0.844070
14,2,93,training,93,0,6,1,1,1,1.682783
14,2,94,training,94,1,1,0,0,1,1.028614
14,2,95,training,95,5,5,0,0,1,0.387871
14,2,96,training,96,1,5,1,1,1,1.738138
14,2,97,generalization,1,4,2,1,NaN,NaN,4.504946
14,2,98,generalization,2,1,5,1,NaN,NaN,0.994414
14,2,99,generalization,3,6,1,1,NaN,NaN,2.268740
14,2,100,generalization,4,0,0,0,NaN,NaN,0.303471
14,2,101,generalization,5,0,6,1,NaN,NaN,0.639936
14,2,102,generalization,6,1,1,1,NaN,NaN,1.673046
14,2,103,generalization,7,4,0,0,NaN,NaN,0.948597
14,2,104,generalization,8,6,2,1,NaN,NaN,3.493748
14,2,105,generalization,9,5,5,0,NaN,NaN,9.799925
14,2,106,generalization,10,5,1,1,NaN,NaN,0.676070
14,2,107,generalization,11,4,1,1,NaN,NaN,0.758062
14,2,108,generalization,12,5,0,1,NaN,NaN,2.178428
14,2,109,generalization,13,5,2,1,NaN,NaN,9.842914
14,2,110,generalization,14,6,6,0,NaN,NaN,1.376270
14,2,111,generalization,15,6,0,1,NaN,NaN,1.620153
15,2,1,training,1,0,0,0,0,1,6.754033
15,2,2,training,2,5,5,1,0,0,0.590874
15,2,3,training,3,1,5,0,1,0,0.938945
15,2,4,training,4,0,6,1,1,1,1.011089
15,2,5,training,5,1,1,0,0,1,0.558665
15,2,6,training,6,6,6,1,0,0,0.470818
15,2,7,training,7,1,5,0,1,0,0.456196
15,2,8,training,8,0,6,0,1,0,0.491129
15,2,9,training,9,0,6,1,1,1,0.726621
15,2,10,training,10,5,5,0,0,1,0.776469
15,2,11,training,11,1,1,0,0,1,0.960832
15,2,12,training,12,1,5,0,1,0,0.543749
15,2,13,training,13,0,0,0,0,1,0.465661
15,2,14,training,14,6,6,0,0,1,1.021543
15,2,15,training,15,1,5,1,1,1,0.279835
15,2,16,training,16,0,6,0,1,0,1.365233
15,2,17,training,17,0,6,1,1,1,0.535776
15,2,18,training,18,5,5,0,0,1,0.708747
15,2,19,training,19,0,6,1,1,1,0.400229
15,2,20,training,20,1,5,1,1,1,0.414760
15,2,21,training,21,1,1,1,0,0,2.572075
15,2,22,training,22,6,6,0,0,1,0.689895
15,2,23,training,23,0,0,0,0,1,0.458780
15,2,24,training,24,1,5,1,1,1,0.941297
15,2,25,training,25,0,6,1,1,1,1.582686
15,2,26,training,26,0,0,0,0,1,0.492013
15,2,27,training,27,0,6,1,1,1,0.972923
15,2,28,training,28,6,6,0,0,1,0.436272
15,2,29,training,29,5,5,1,0,0,0.491399
15,2,30,training,30,1,5,1,1,1,0.407441
15,2,31,training,31,1,1,0,0,1,1.094130
15,2,32,training,32,1,5,1,1,1,0.449303
15,2,33,training,33,1,1,0,0,1,0.554275
15,2,34,training,34,6,6,0,0,1,0.329573
15,2,35,training,35,0,6,1,1,1,0.708481
15,2,36,training,36,5,5,0,0,1,0.303660
15,2,37,training,37,1,5,1,1,1,0.311203
15,2,38,training,38,1,5,1,1,1,0.301748
15,2,39,training,39,0,0,0,0,1,0.392864
15,2,40,training,40,0,6,1,1,1,0.420297
15,2,41,training,41,0,6,1,1,1,0.461657
15,2,42,training,42,6,6,0,0,1,0.345486
15,2,43,training,43,1,5,1,1,1,0.280701
15,2,44,training,44,5,5,1,0,0,0.420621
15,2,45,training,45,0,0,1,0,0,2.348716
15,2,46,training,46,0,6,1,1,1,0.349800
15,2,47,training,47,1,1,0,0,1,1.102958
15,2,48,training,48,1,5,1,1,1,0.203416
15,2,49,training,49,0,6,1,1,1,0.928403
15,2,50,training,50,6,6,0,0,1,0.259947
15,2,51,training,51,1,5,1,1,1,0.289264
15,2,52,training,52,0,0,0,0,1,0.716249
15,2,53,training,53,1,1,0,0,1,1.423201
15,2,54,training,54,1,5,1,1,1,0.315895
15,2,55,training,55,5,5,0,0,1,0.801916
15,2,56,training,56,0,6,1,1,1,1.598086
15,2,57,training,57,0,6,1,1,1,0.381142
15,2,58,training,58,0,0,0,0,1,0.333828
15,2,59,training,59,1,5,1,1,1,1.966012
15,2,60,training,60,0,6,1,1,1,0.343337
15,2,61,training,61,6,6,0,0,1,0.308068
15,2,62,training,62,5,5,0,0,1,0.295668
15,2,63,training,63,1,1,0,0,1,0.904544
15,2,64,training,64,1,5,1,1,1,0.459332
15,2,65,training,65,0,6,1,1,1,0.576508
15,2,66,training,66,0,6,1,1,1,0.485067
15,2,67,training,67,5,5,0,0,1,0.857425
15,2,68,training,68,1,5,1,1,1,1.250171
15,2,69,training,69,0,0,0,0,1,1.614121
15,2,70,training,70,1,5,1,1,1,1.788609
15,2,71,training,71,6,6,0,0,1,0.739580
15,2,72,training,72,1,1,0,0,1,0.628205
15,2,73,training,73,1,5,1,1,1,0.319028
15,2,74,training,74,1,5,1,1,1,0.428007
15,2,75,training,75,5,5,0,0,1,0.489861
15,2,76,training,76,1,1,0,0,1,0.924388
15,2,77,training,77,0,0,0,0,1,0.276670
15,2,78,training,78,0,6,1,1,1,0.975721
15,2,79,training,79,0,6,1,1,1,0.210569
15,2,80,training,80,6,6,0,0,1,0.473125
15,2,81,training,81,0,6,1,1,1,0.517528
15,2,82,training,82,6,6,0,0,1,0.870135
15,2,83,training,83,5,5,0,0,1,0.559847
15,2,84,training,84,1,5,1,1,1,0.703111
15,2,85,training,85,0,6,0,1,0,1.685999
15,2,86,training,86,1,5,1,1,1,0.324166
15,2,87,training,87,1,1,0,0,1,0.877319
15,2,88,training,88,0,0,0,0,1,2.974313
15,2,89,training,89,6,6,0,0,1,0.305261
15,2,90,training,90,0,6,1,1,1,0.866649
15,2,91,training,91,5,5,0,0,1,0.324745
15,2,92,training,92,1,5,1,1,1,0.380216
15,2,93,training,93,1,1,0,0,1,0.698906
15,2,94,training,94,0,6,1,1,1,0.458052
15,2,95,training,95,0,0,0,0,1,0.170098
15,2,96,training,96,1,5,1,1,1,1.551242
15,2,97,generalization,1,1,1,0,NaN,NaN,3.981756
15,2,98,generalization,2,4,0,0,NaN,NaN,3.868970
15,2,99,generalization,3,6,1,0,NaN,NaN,4.160973
15,2,100,generalization,4,0,0,0,NaN,NaN,0.300612
15,2,101,generalization,5,6,2,0,NaN,NaN,0.637071
15,2,102,generalization,6,5,0,0,NaN,NaN,1.006177
15,2,103,generalization,7,5,1,0,NaN,NaN,0.272570
15,2,104,generalization,8,1,5,1,NaN,NaN,0.704152
15,2,105,generalization,9,6,0,0,NaN,NaN,0.338847
15,2,106,generalization,10,4,2,1,NaN,NaN,3.892458
15,2,107,generalization,11,6,6,0,NaN,NaN,0.392822
15,2,108,generalization,12,4,1,1,NaN,NaN,0.427527
15,2,109,generalization,13,0,6,1,NaN,NaN,0.751100
15,2,110,generalization,14,5,2,1,NaN,NaN,0.811194
15,2,111,generalization,15,5,5,1,NaN,NaN,2.696748
16,0,1,training,1,0,0,0,0,1,3.946903
16,0,2,training,2,5,5,0,0,1,4.515841
16,0,3,training,3,0,6,0,1,0,1.884674
16,0,4,training,4,6,6,1,0,0,1.845245
16,0,5,training,5,1,5,0,1,0,2.899504
16,0,6,training,6,1,5,1,1,1,2.596480
16,0,7,training,7,0,6,0,1,0,1.284796
16,0,8,training,8,1,1,1,0,0,1.566290
16,0,9,training,9,0,0,0,0,1,1.098746
16,0,10,training,10,5,5,1,0,0,2.391875
16,0,11,training,11,1,1,1,0,0,0.844245
16,0,12,training,12,0,6,0,1,0,0.825502
16,0,13,training,13,1,5,0,1,0,1.981798
16,0,14,training,14,6,6,1,0,0,2.938909
16,0,15,training,15,0,6,0,1,0,0.810072
16,0,16,training,16,1,5,1,1,1,1.747777
16,0,17,training,17,0,6,1,1,1,0.663235
16,0,18,training,18,1,5,1,1,1,0.772743
16,0,19,training,19,1,1,0,0,1,2.539983
16,0,20,training,20,0,0,0,0,1,1.041994
16,0,21,training,21,6,6,1,0,0,0.891256
16,0,22,training,22,1,5,1,1,1,0.860313
16,0,23,training,23,0,6,1,1,1,0.836191
16,0,24,training,24,5,5,1,0,0,1.372431
16,0,25,training,25,1,5,1,1,1,0.777184
16,0,26,training,26,5,5,0,0,1,0.788504
16,0,27,training,27,6,6,0,0,1,0.781808
16,0,28,training,28,1,1,1,0,0,3.151292
16,0,29,training,29,1,5,1,1,1,1.432744
16,0,30,training,30,0,6,1,1,1,0.537825
16,0,31,training,31,0,6,1,1,1,1.551409
16,0,32,training,32,0,0,0,0,1,2.700355
16,0,33,training,33,1,5,0,1,0,1.541337
16,0,34,training,34,0,6,1,1,1,0.609608
16,0,35,training,35,6,6,0,0,1,1.713157
16,0,36,training,36,0,0,1,0,0,4.008618
16,0,37,training,37,1,5,0,1,0,1.010980
16,0,38,training,38,1,1,1,0,0,5.507433
16,0,39,training,39,5,5,1,0,0,0.992816
16,0,40,training,40,0,6,0,1,0,1.921997
16,0,41,training,41,1,1,1,0,0,1.704696
16,0,42,training,42,0,0,0,0,1,1.463007
16,0,43,training,43,0,6,0,1,0,2.343283
16,0,44,training,44,1,5,0,1,0,1.091026
16,0,45,training,45,6,6,0,0,1,0.748229
16,0,46,training,46,0,6,0,1,0,4.152379
16,0,47,training,47,1,5,1,1,1,1.474550
16,0,48,training,48,5,5,0,0,1,0.914443
16,0,49,training,49,0,0,0,0,1,1.380269
16,0,50,training,50,6,6,0,0,1,1.318098
16,0,51,training,51,1,5,1,1,1,0.585185
16,0,52,training,52,1,5,1,1,1,0.714045
16,0,53,training,53,0,6,1,1,1,0.644505
16,0,54,training,54,0,6,1,1,1,0.578334
16,0,55,training,55,5,5,0,0,1,1.247215
16,0,56,training,56,1,1,0,0,1,4.055746
16,0,57,training,57,1,5,1,1,1,3.971235
16,0,58,training,58,0,6,1,1,1,6.892299
16,0,59,training,59,0,6,1,1,1,5.950068
16,0,60,training,60,0,0,0,0,1,1.028133
16,0,61,training,61,1,1,0,0,1,1.299946
16,0,62,training,62,6,6,0,0,1,1.625129
16,0,63,training,63,1,5,1,1,1,1.698472
16,0,64,training,64,5,5,0,0,1,0.836572
16,0,65,training,65,1,5,1,1,1,0.763659
16,0,66,training,66,0,6,1,1,1,0.731650
16,0,67,training,67,6,6,0,0,1,0.420573
16,0,68,training,68,0,6,1,1,1,1.052495
16,0,69,training,69,0,0,0,0,1,0.796335
16,0,70,training,70,5,5,0,0,1,0.982416
16,0,71,training,71,1,1,0,0,1,1.251921
16,0,72,training,72,1,5,1,1,1,0.798936
16,0,73,training,73,1,1,0,0,1,0.585481
16,0,74,training,74,1,5,1,1,1,0.941385
16,0,75,training,75,6,6,0,0,1,1.274924
16,0,76,training,76,0,0,0,0,1,0.728685
16,0,77,training,77,0,6,1,1,1,0.371197
16,0,78,training,78,5,5,0,0,1,0.563263
16,0,79,training,79,1,5,1,1,1,0.278419
16,0,80,training,80,0,6,1,1,1,1.265419
16,0,81,training,81,6,6,0,0,1,0.307960
16,0,82,training,82,0,6,1,1,1,1.245440
16,0,83,training,83,1,5,1,1,1,1.773859
16,0,84,training,84,0,6,1,1,1,1.795021
16,0,85,training,85,1,5,1,1,1,1.396170
16,0,86,training,86,5,5,0,0,1,0.381280
16,0,87,training,87,1,1,0,0,1,2.090421
16,0,88,training,88,0,0,0,0,1,9.116823
16,0,89,training,89,6,6,0,0,1,0.911199
16,0,90,training,90,1,1,0,0,1,1.287541
16,0,91,training,91,0,6,1,1,1,1.437457
16,0,92,training,92,0,0,0,0,1,0.826067
16,0,93,training,93,1,5,1,1,1,1.805821
16,0,94,training,94,0,6,1,1,1,1.257625
16,0,95,training,95,1,5,1,1,1,0.443981
16,0,96,training,96,5,5,0,0,1,0.762067
16,0,97,generalization,1,5,2,1,NaN,NaN,19.817885
16,0,98,generalization,2,5,5,0,NaN,NaN,1.500201
16,0,99,generalization,3,6,6,0,NaN,NaN,1.995253
16,0,100,generalization,4,0,6,1,NaN,NaN,5.415219
16,0,101,generalization,5,1,1,1,NaN,NaN,0.370790
16,0,102,generalization,6,5,0,0,NaN,NaN,0.397232
16,0,103,generalization,7,5,1,0,NaN,NaN,0.494527
16,0,104,generalization,8,6,2,0,NaN,NaN,0.277132
16,0,105,generalization,9,6,1,0,NaN,NaN,0.213140
16,0,106,generalization,10,4,0,0,NaN,NaN,0.963500
16,0,107,generalization,11,4,1,0,NaN,NaN,0.000188
16,0,108,generalization,12,1,5,1,NaN,NaN,0.341522
16,0,109,generalization,13,0,0,1,NaN,NaN,0.223127
16,0,110,generalization,14,4,2,0,NaN,NaN,0.261389
16,0,111,generalization,15,6,0,0,NaN,NaN,1.004959
17,5,1,training,1,1,5,1,1,1,2.237120
17,5,2,training,2,0,6,1,1,1,0.771119
17,5,3,training,3,5,5,1,0,0,1.441515
17,5,4,training,4,6,6,0,0,1,0.565520
17,5,5,training,5,0,6,1,1,1,0.616431
17,5,6,training,6,1,5,1,1,1,0.415408
17,5,7,training,7,0,0,1,0,0,0.978197
17,5,8,training,8,1,1,0,0,1,0.617813
17,5,9,training,9,5,5,0,0,1,0.541081
17,5,10,training,10,1,5,1,1,1,0.515798
17,5,11,training,11,0,6,1,1,1,0.314369
17,5,12,training,12,1,1,0,0,1,0.556734
17,5,13,training,13,0,6,1,1,1,1.575725
17,5,14,training,14,6,6,0,0,1,0.483205
17,5,15,training,15,1,5,1,1,1,0.853095
17,5,16,training,16,0,0,0,0,1,0.942677
17,5,17,training,17,1,1,0,0,1,0.961800
17,5,18,training,18,0,0,0,0,1,0.550992
17,5,19,training,19,0,6,1,1,1,0.593298
17,5,20,training,20,1,5,1,1,1,1.660504
17,5,21,training,21,1,5,1,1,1,0.682861
17,5,22,training,22,6,6,0,0,1,0.518545
17,5,23,training,23,0,6,1,1,1,0.580189
17,5,24,training,24,5,5,0,0,1,3.079208
17,5,25,training,25,0,6,1,1,1,0.343951
17,5,26,training,26,1,5,1,1,1,0.293280
17,5,27,training,27,6,6,0,0,1,0.490328
17,5,28,training,28,5,5,0,0,1,0.372804
17,5,29,training,29,0,6,1,1,1,0.832351
17,5,30,training,30,0,0,0,0,1,0.631833
17,5,31,training,31,1,5,1,1,1,0.350921
17,5,32,training,32,1,1,0,0,1,0.444672
17,5,33,training,33,1,1,0,0,1,0.545642
17,5,34,training,34,1,5,1,1,1,0.546856
17,5,35,training,35,0,0,0,0,1,0.595911
17,5,36,training,36,5,5,0,0,1,0.456169
17,5,37,training,37,1,5,1,1,1,0.282945
17,5,38,training,38,0,6,1,1,1,0.589159
17,5,39,training,39,0,6,1,1,1,0.273207
17,5,40,training,40,6,6,0,0,1,0.569237
17,5,41,training,41,0,6,1,1,1,0.486665
17,5,42,training,42,1,5,1,1,1,0.594754
17,5,43,training,43,6,6,0,0,1,0.432890
17,5,44,training,44,5,5,0,0,1,0.587643
17,5,45,training,45,1,1,0,0,1,0.815700
17,5,46,training,46,1,5,1,1,1,1.075434
17,5,47,training,47,0,0,0,0,1,0.407188
17,5,48,training,48,0,6,1,1,1,0.308787
17,5,49,training,49,5,5,0,0,1,0.295918
17,5,50,training,50,0,6,1,1,1,0.578662
17,5,51,training,51,1,1,0,0,1,0.607360
17,5,52,training,52,0,6,1,1,1,0.538483
17,5,53,training,53,6,6,0,0,1,0.292383
17,5,54,training,54,0,0,0,0,1,1.148611
17,5,55,training,55,1,5,1,1,1,0.253096
17,5,56,training,56,1,5,1,1,1,0.489034
17,5,57,training,57,1,1,0,0,1,0.808594
17,5,58,training,58,6,6,0,0,1,0.308827
17,5,59,training,59,5,5,0,0,1,0.361440
17,5,60,training,60,0,0,0,0,1,1.090687
17,5,61,training,61,0,6,1,1,1,0.306216
17,5,62,training,62,0,6,1,1,1,0.868806
17,5,63,training,63,1,5,1,1,1,0.316167
17,5,64,training,64,1,5,1,1,1,0.277928
17,5,65,training,65,6,6,0,0,1,1.932363
17,5,66,training,66,5,5,0,0,1,1.114319
17,5,67,training,67,1,5,1,1,1,0.811634
17,5,68,training,68,1,5,1,1,1,0.491499
17,5,69,training,69,0,6,1,1,1,1.189169
17,5,70,training,70,0,6,1,1,1,0.634436
17,5,71,training,71,0,0,0,0,1,0.329523
17,5,72,training,72,1,1,0,0,1,0.345623
17,5,73,training,73,5,5,0,0,1,0.524473
17,5,74,training,74,1,5,1,1,1,0.309045
17,5,75,training,75,1,5,1,1,1,0.349076
17,5,76,training,76,6,6,0,0,1,0.303090
17,5,77,training,77,0,6,1,1,1,0.530315
17,5,78,training,78,1,1,0,0,1,0.299998
17,5,79,training,79,0,6,1,1,1,0.306569
17,5,80,training,80,0,0,0,0,1,0.287730
17,5,81,training,81,5,5,0,0,1,0.340775
17,5,82,training,82,6,6,0,0,1,0.599598
17,5,83,training,83,0,6,1,1,1,0.319247
17,5,84,training,84,1,5,1,1,1,0.308334
17,5,85,training,85,1,5,1,1,1,0.307614
17,5,86,training,86,0,6,1,1,1,0.734818
17,5,87,training,87,1,1,0,0,1,0.964310
17,5,88,training,88,0,0,0,0,1,1.586122
17,5,89,training,89,1,5,1,1,1,1.357001
17,5,90,training,90,1,5,1,1,1,0.652392
17,5,91,training,91,6,6,0,0,1,0.542878
17,5,92,training,92,0,0,0,0,1,0.454363
17,5,93,training,93,0,6,1,1,1,0.322996
17,5,94,training,94,0,6,1,1,1,0.504816
17,5,95,training,95,1,1,0,0,1,0.315739
17,5,96,training,96,5,5,0,0,1,1.248685
17,5,97,generalization,1,0,6,1,NaN,NaN,0.764429
17,5,98,generalization,2,6,6,0,NaN,NaN,0.488325
17,5,99,generalization,3,4,0,1,NaN,NaN,1.061545
17,5,100,generalization,4,6,2,1,NaN,NaN,0.825664
17,5,101,generalization,5,5,2,1,NaN,NaN,0.399698
17,5,102,generalization,6,5,0,1,NaN,NaN,0.642786
17,5,103,generalization,7,1,5,1,NaN,NaN,0.571940
17,5,104,generalization,8,0,0,0,NaN,NaN,0.675536
17,5,105,generalization,9,5,1,1,NaN,NaN,0.709365
17,5,106,generalization,10,4,1,1,NaN,NaN,0.288155
17,5,107,generalization,11,1,1,1,NaN,NaN,1.104195
17,5,108,generalization,12,5,5,0,NaN,NaN,0.485398
17,5,109,generalization,13,4,2,1,NaN,NaN,0.354582
17,5,110,generalization,14,6,1,1,NaN,NaN,0.492596
17,5,111,generalization,15,6,0,1,NaN,NaN,0.322192
18,5,1,training,1,1,1,1,0,0,5.769403
18,5,2,training,2,0,6,1,1,1,4.821867
18,5,3,training,3,0,6,1,1,1,0.493386
18,5,4,training,4,1,5,1,1,1,0.557849
18,5,5,training,5,6,6,1,0,0,0.576812
18,5,6,training,6,0,0,0,0,1,2.140936
18,5,7,training,7,1,5,1,1,1,0.664740
18,5,8,training,8,5,5,0,0,1,0.453749
18,5,9,training,9,1,5,1,1,1,0.799039
18,5,10,training,10,5,5,0,0,1,0.452828
18,5,11,training,11,0,6,1,1,1,0.662608
18,5,12,training,12,0,6,1,1,1,0.482152
18,5,13,training,13,0,0,0,0,1,0.419308
18,5,14,training,14,6,6,0,0,1,0.976118
18,5,15,training,15,1,5,1,1,1,0.712784
18,5,16,training,16,1,1,0,0,1,1.575773
18,5,17,training,17,6,6,0,0,1,0.401591
18,5,18,training,18,1,5,1,1,1,1.069561
18,5,19,training,19,0,6,1,1,1,0.534045
18,5,20,training,20,0,0,0,0,1,0.941155
18,5,21,training,21,1,5,1,1,1,0.727637
18,5,22,training,22,1,1,0,0,1,0.422636
18,5,23,training,23,5,5,0,0,1,1.329305
18,5,24,training,24,0,6,1,1,1,0.503938
18,5,25,training,25,1,5,1,1,1,0.428845
18,5,26,training,26,5,5,0,0,1,0.308455
18,5,27,training,27,0,0,0,0,1,0.413598
18,5,28,training,28,6,6,0,0,1,0.871717
18,5,29,training,29,1,5,1,1,1,0.511001
18,5,30,training,30,0,6,1,1,1,0.947170
18,5,31,training,31,0,6,1,1,1,1.043606
18,5,32,training,32,1,1,0,0,1,0.750319
18,5,33,training,33,1,5,1,1,1,0.832829
18,5,34,training,34,0,0,0,0,1,0.403339
18,5,35,training,35,5,5,0,0,1,0.610381
18,5,36,training,36,0,6,1,1,1,1.050893
18,5,37,training,37,1,5,1,1,1,1.509112
18,5,38,training,38,6,6,0,0,1,0.549795
18,5,39,training,39,1,1,0,0,1,0.519703
18,5,40,training,40,0,6,1,1,1,0.481713
18,5,41,training,41,1,1,0,0,1,0.588808
18,5,42,training,42,0,6,1,1,1,0.417146
18,5,43,training,43,0,0,0,0,1,0.392488
18,5,44,training,44,1,5,1,1,1,0.688502
18,5,45,training,45,0,6,1,1,1,0.299420
18,5,46,training,46,1,5,1,1,1,0.653883
18,5,47,training,47,6,6,0,0,1,0.555517
18,5,48,training,48,5,5,0,0,1,0.578142
18,5,49,training,49,0,0,0,0,1,0.386970
18,5,50,training,50,0,6,1,1,1,0.888977
18,5,51,training,51,6,6,0,0,1,0.446480
18,5,52,training,52,1,1,0,0,1,0.622424
18,5,53,training,53,0,6,1,1,1,0.665008
18,5,54,training,54,1,5,1,1,1,0.285811
18,5,55,training,55,5,5,0,0,1,0.320447
18,5,56,training,56,1,5,1,1,1,0.266191
18,5,57,training,57,1,1,0,0,1,0.481655
18,5,58,training,58,0,0,0,0,1,1.304788
18,5,59,training,59,0,6,1,1,1,0.772671
18,5,60,training,60,6,6,0,0,1,0.870222
18,5,61,training,61,0,6,1,1,1,0.422182
18,5,62,training,62,1,5,1,1,1,1.043280
18,5,63,training,63,5,5,0,0,1,0.547733
18,5,64,training,64,1,5,1,1,1,0.323249
18,5,65,training,65,0,6,1,1,1,0.238283
18,5,66,training,66,5,5,0,0,1,0.413062
18,5,67,training,67,1,5,1,1,1,0.396340
18,5,68,training,68,0,0,0,0,1,0.491419
18,5,69,training,69,1,5,1,1,1,0.282555
18,5,70,training,70,0,6,1,1,1,0.234660
18,5,71,training,71,1,1,0,0,1,0.431310
18,5,72,training,72,6,6,0,0,1,1.233120
18,5,73,training,73,0,0,0,0,1,0.568146
18,5,74,training,74,1,1,0,0,1,0.680104
18,5,75,training,75,6,6,0,0,1,1.591977
18,5,76,training,76,0,6,1,1,1,4.502405
18,5,77,training,77,5,5,0,0,1,0.435153
18,5,78,training,78,1,5,1,1,1,0.846596
18,5,79,training,79,1,5,1,1,1,0.380002
18,5,80,training,80,0,6,1,1,1,0.829375
18,5,81,training,81,1,1,0,0,1,1.506865
18,5,82,training,82,6,6,0,0,1,0.486225
18,5,83,training,83,5,5,0,0,1,0.401461
18,5,84,training,84,0,6,1,1,1,0.562365
18,5,85,training,85,1,5,1,1,1,0.295250
18,5,86,training,86,0,6,1,1,1,0.254170
18,5,87,training,87,1,5,1,1,1,0.256572
18,5,88,training,88,0,0,0,0,1,0.284262
18,5,89,training,89,5,5,0,0,1,0.426077
18,5,90,training,90,0,6,1,1,1,0.265237
18,5,91,training,91,6,6,0,0,1,0.683513
18,5,92,training,92,0,6,1,1,1,0.270556
18,5,93,training,93,1,1,0,0,1,0.290952
18,5,94,training,94,1,5,1,1,1,0.719252
18,5,95,training,95,1,5,1,1,1,0.342479
18,5,96,training,96,0,0,0,0,1,0.293805
18,5,97,generalization,1,5,0,1,NaN,NaN,2.829535
18,5,98,generalization,2,0,6,1,NaN,NaN,0.446734
18,5,99,generalization,3,4,1,1,NaN,NaN,1.507126
18,5,100,generalization,4,4,2,0,NaN,NaN,1.906765
18,5,101,generalization,5,5,2,1,NaN,NaN,1.340343
18,5,102,generalization,6,4,0,1,NaN,NaN,1.823448
18,5,103,generalization,7,0,0,0,NaN,NaN,0.750992
18,5,104,generalization,8,1,5,1,NaN,NaN,0.635053
18,5,105,generalization,9,6,0,1,NaN,NaN,0.788199
18,5,106,generalization,10,5,1,1,NaN,NaN,5.312786
18,5,107,generalization,11,1,1,0,NaN,NaN,0.922220
18,5,108,generalization,12,6,2,0,NaN,NaN,4.074378
18,5,109,generalization,13,6,6,0,NaN,NaN,0.523649
18,5,110,generalization,14,5,5,0,NaN,NaN,0.290185
18,5,111,generalization,15,6,1,1,NaN,NaN,0.794454
19,5,1,training,1,5,5,0,0,1,10.110036
19,5,2,training,2,0,6,0,1,0,2.606889
19,5,3,training,3,0,0,1,0,0,1.460503
19,5,4,training,4,1,5,1,1,1,0.971633
19,5,5,training,5,1,1,0,0,1,0.560433
19,5,6,training,6,6,6,1,0,0,1.040097
19,5,7,training,7,0,6,1,1,1,0.741988
19,5,8,training,8,1,5,1,1,1,1.351459
19,5,9,training,9,1,1,0,0,1,1.660712
19,5,10,training,10,1,5,1,1,1,0.959864
19,5,11,training,11,0,0,0,0,1,0.560920
19,5,12,training,12,6,6,0,0,1,0.815443
19,5,13,training,13,5,5,1,0,0,0.642693
19,5,14,training,14,0,6,1,1,1,1.003372
19,5,15,training,15,0,6,1,1,1,0.840278
19,5,16,training,16,1,5,1,1,1,0.701163
19,5,17,training,17,1,5,1,1,1,0.599608
19,5,18,training,18,5,5,0,0,1,0.569242
19,5,19,training,19,1,5,1,1,1,0.480072
19,5,20,training,20,0,0,0,0,1,0.682794
19,5,21,training,21,1,1,0,0,1,0.664060
19,5,22,training,22,0,6,1,1,1,0.906278
19,5,23,training,23,6,6,0,0,1,0.594164
19,5,24,training,24,0,6,1,1,1,0.595779
19,5,25,training,25,1,1,0,0,1,0.475041
19,5,26,training,26,6,6,0,0,1,1.127281
19,5,27,training,27,1,5,1,1,1,0.447651
19,5,28,training,28,0,6,1,1,1,0.463518
19,5,29,training,29,1,5,1,1,1,0.379052
19,5,30,training,30,0,0,0,0,1,0.614516
19,5,31,training,31,0,6,1,1,1,0.344042
19,5,32,training,32,5,5,0,0,1,1.244480
19,5,33,training,33,1,1,1,0,0,2.576025
19,5,34,training,34,5,5,0,0,1,0.944568
19,5,35,training,35,1,5,1,1,1,0.775915
19,5,36,training,36,1,5,0,1,0,1.482926
19,5,37,training,37,6,6,0,0,1,0.775623
19,5,38,training,38,0,6,1,1,1,0.933491
19,5,39,training,39,0,0,0,0,1,1.497360
19,5,40,training,40,0,6,1,1,1,0.579684
19,5,41,training,41,5,5,0,0,1,1.516673
19,5,42,training,42,1,5,1,1,1,0.490979
19,5,43,training,43,0,0,0,0,1,0.556151
19,5,44,training,44,1,5,1,1,1,0.654795
19,5,45,training,45,1,1,0,0,1,0.581571
19,5,46,training,46,0,6,1,1,1,0.487218
19,5,47,training,47,0,6,1,1,1,0.617293
19,5,48,training,48,6,6,0,0,1,1.057478
19,5,49,training,49,5,5,1,0,0,0.517904
19,5,50,training,50,1,5,1,1,1,0.529052
19,5,51,training,51,1,1,0,0,1,1.322524
19,5,52,training,52,6,6,0,0,1,0.696947
19,5,53,training,53,1,5,1,1,1,0.626898
19,5,54,training,54,0,6,1,1,1,0.560836
19,5,55,training,55,0,0,0,0,1,0.682898
19,5,56,training,56,0,6,1,1,1,2.818999
19,5,57,training,57,6,6,0,0,1,1.196836
19,5,58,training,58,1,5,1,1,1,0.986954
19,5,59,training,59,0,6,1,1,1,0.929130
19,5,60,training,60,1,5,0,1,0,1.347380
19,5,61,training,61,1,1,0,0,1,1.361548
19,5,62,training,62,0,6,1,1,1,0.823516
19,5,63,training,63,0,0,0,0,1,0.563044
19,5,64,training,64,5,5,0,0,1,1.652539
19,5,65,training,65,0,6,1,1,1,0.513756
19,5,66,training,66,0,0,0,0,1,0.809857
19,5,67,training,67,1,1,0,0,1,0.678865
19,5,68,training,68,0,6,1,1,1,0.579721
19,5,69,training,69,6,6,0,0,1,1.145760
19,5,70,training,70,1,5,1,1,1,0.920722
19,5,71,training,71,5,5,0,0,1,1.760227
19,5,72,training,72,1,5,1,1,1,1.431938
19,5,73,training,73,1,1,0,0,1,1.157373
19,5,74,training,74,0,0,0,0,1,0.814225
19,5,75,training,75,1,5,1,1,1,0.581326
19,5,76,training,76,0,6,1,1,1,0.505689
19,5,77,training,77,5,5,0,0,1,0.698142
19,5,78,training,78,6,6,0,0,1,0.874476
19,5,79,training,79,0,6,1,1,1,0.645217
19,5,80,training,80,1,5,1,1,1,0.755907
19,5,81,training,81,1,5,1,1,1,0.648416
19,5,82,training,82,0,6,1,1,1,0.529495
19,5,83,training,83,1,5,0,1,0,0.417157
19,5,84,training,84,5,5,0,0,1,1.934132
19,5,85,training,85,0,0,0,0,1,0.443203
19,5,86,training,86,6,6,0,0,1,0.608268
19,5,87,training,87,1,1,0,0,1,0.524971
19,5,88,training,88,0,6,1,1,1,0.946699
19,5,89,training,89,0,6,1,1,1,0.635212
19,5,90,training,90,1,5,1,1,1,0.368119
19,5,91,training,91,5,5,0,0,1,1.711496
19,5,92,training,92,1,1,0,0,1,0.923852
19,5,93,training,93,6,6,0,0,1,1.794089
19,5,94,training,94,0,0,0,0,1,0.507576
19,5,95,training,95,1,5,1,1,1,1.188633
19,5,96,training,96,0,6,1,1,1,0.810908
19,5,97,generalization,1,4,1,0,NaN,NaN,0.567884
19,5,98,generalization,2,6,2,0,NaN,NaN,0.640901
19,5,99,generalization,3,0,6,1,NaN,NaN,0.634117
19,5,100,generalization,4,5,1,0,NaN,NaN,0.563234
19,5,101,generalization,5,5,0,0,NaN,NaN,0.482509
19,5,102,generalization,6,5,5,0,NaN,NaN,0.383682
19,5,103,generalization,7,4,2,0,NaN,NaN,0.274428
19,5,104,generalization,8,5,2,0,NaN,NaN,0.320247
19,5,105,generalization,9,1,1,0,NaN,NaN,0.443200
19,5,106,generalization,10,6,0,0,NaN,NaN,0.255263
19,5,107,generalization,11,4,0,0,NaN,NaN,0.454403
19,5,108,generalization,12,6,1,0,NaN,NaN,0.402818
19,5,109,generalization,13,0,0,0,NaN,NaN,0.541985
19,5,110,generalization,14,1,5,1,NaN,NaN,0.332629
19,5,111,generalization,15,6,6,0,NaN,NaN,0.821808
20,0,1,training,1,0,6,0,1,0,3.869038
20,0,2,training,2,1,1,1,0,0,0.906003
20,0,3,training,3,1,5,1,1,1,0.742477
20,0,4,training,4,0,0,0,0,1,0.568075
20,0,5,training,5,1,5,1,1,1,0.957432
20,0,6,training,6,0,6,1,1,1,0.477086
20,0,7,training,7,5,5,1,0,0,0.663344
20,0,8,training,8,6,6,0,0,1,0.568337
20,0,9,training,9,0,0,1,0,0,1.090231
20,0,10,training,10,6,6,1,0,0,1.408124
20,0,11,training,11,1,1,1,0,0,1.099662
20,0,12,training,12,1,5,1,1,1,0.580780
20,0,13,training,13,1,5,1,1,1,0.336076
20,0,14,training,14,0,6,1,1,1,0.515338
20,0,15,training,15,5,5,0,0,1,0.648286
20,0,16,training,16,0,6,1,1,1,0.307822
20,0,17,training,17,6,6,0,0,1,0.812250
20,0,18,training,18,1,5,1,1,1,0.756830
20,0,19,training,19,0,6,1,1,1,0.474898
20,0,20,training,20,5,5,0,0,1,0.395675
20,0,21,training,21,1,5,1,1,1,0.708284
20,0,22,training,22,0,6,1,1,1,0.502237
20,0,23,training,23,1,1,0,0,1,0.437251
20,0,24,training,24,0,0,0,0,1,0.422052
20,0,25,training,25,0,6,1,1,1,0.604566
20,0,26,training,26,0,0,0,0,1,0.510359
20,0,27,training,27,0,6,1,1,1,0.320414
20,0,28,training,28,1,5,1,1,1,1.147590
20,0,29,training,29,5,5,0,0,1,0.293035
20,0,30,training,30,1,5,1,1,1,0.746420
20,0,31,training,31,1,1,1,0,0,1.583957
20,0,32,training,32,6,6,0,0,1,0.635428
20,0,33,training,33,0,6,1,1,1,0.301380
20,0,34,training,34,6,6,0,0,1,0.479363
20,0,35,training,35,1,5,1,1,1,0.842614
20,0,36,training,36,0,0,1,0,0,0.518020
20,0,37,training,37,1,5,1,1,1,1.043557
20,0,38,training,38,1,1,0,0,1,1.306196
20,0,39,training,39,0,6,1,1,1,0.402771
20,0,40,training,40,5,5,0,0,1,0.474901
20,0,41,training,41,6,6,0,0,1,0.466410
20,0,42,training,42,1,5,1,1,1,0.729515
20,0,43,training,43,1,5,1,1,1,0.543157
20,0,44,training,44,1,1,0,0,1,1.559115
20,0,45,training,45,0,6,1,1,1,0.362703
20,0,46,training,46,0,0,0,0,1,1.966093
20,0,47,training,47,0,6,1,1,1,1.068491
20,0,48,training,48,5,5,0,0,1,1.036513
20,0,49,training,49,5,5,0,0,1,0.338117
20,0,50,training,50,6,6,0,0,1,0.279288
20,0,51,training,51,1,5,1,1,1,0.477964
20,0,52,training,52,0,0,0,0,1,0.604390
20,0,53,training,53,0,6,1,1,1,0.543536
20,0,54,training,54,1,1,0,0,1,2.640903
20,0,55,training,55,1,5,1,1,1,0.587395
20,0,56,training,56,0,6,1,1,1,0.340498
20,0,57,training,57,1,5,1,1,1,0.391802
20,0,58,training,58,5,5,0,0,1,0.255980
20,0,59,training,59,0,0,0,0,1,0.779180
20,0,60,training,60,1,1,0,0,1,0.410789
20,0,61,training,61,6,6,0,0,1,0.740536
20,0,62,training,62,1,5,1,1,1,0.388884
20,0,63,training,63,0,6,1,1,1,0.394662
20,0,64,training,64,0,6,1,1,1,0.305604
20,0,65,training,65,6,6,0,0,1,0.314523
20,0,66,training,66,1,5,1,1,1,0.684429
20,0,67,training,67,1,5,1,1,1,0.267404
20,0,68,training,68,0,0,0,0,1,0.261242
20,0,69,training,69,0,6,1,1,1,0.435740
20,0,70,training,70,0,6,1,1,1,0.328377
20,0,71,training,71,1,1,0,0,1,0.408660
20,0,72,training,72,5,5,0,0,1,0.297890
20,0,73,training,73,1,5,1,1,1,0.851532
20,0,74,training,74,1,5,1,1,1,0.412295
20,0,75,training,75,1,1,0,0,1,0.255567
20,0,76,training,76,6,6,0,0,1,0.304678
20,0,77,training,77,0,6,1,1,1,0.257362
20,0,78,training,78,0,6,1,1,1,0.237783
20,0,79,training,79,5,5,0,0,1,0.273007
20,0,80,training,80,0,0,0,0,1,0.513733
20,0,81,training,81,5,5,0,0,1,0.292819
20,0,82,training,82,1,5,1,1,1,0.307576
20,0,83,training,83,0,0,0,0,1,0.584053
20,0,84,training,84,6,6,0,0,1,0.249953
20,0,85,training,85,0,6,1,1,1,0.358337
20,0,86,training,86,1,5,1,1,1,0.444397
20,0,87,training,87,1,1,0,0,1,0.505974
20,0,88,training,88,0,6,1,1,1,0.723829
20,0,89,training,89,1,5,1,1,1,1.052267
20,0,90,training,90,5,5,0,0,1,0.255314
20,0,91,training,91,0,6,1,1,1,0.376974
20,0,92,training,92,1,5,1,1,1,0.335474
20,0,93,training,93,1,1,0,0,1,0.691292
20,0,94,training,94,6,6,0,0,1,0.280433
20,0,95,training,95,0,6,1,1,1,0.403944
20,0,96,training,96,0,0,0,0,1,0.251841
20,0,97,generalization,1,6,1,0,NaN,NaN,1.317951
20,0,98,generalization,2,6,0,1,NaN,NaN,2.381394
20,0,99,generalization,3,0,6,1,NaN,NaN,0.603805
20,0,100,generalization,4,5,1,0,NaN,NaN,5.852045
20,0,101,generalization,5,4,1,0,NaN,NaN,1.234928
20,0,102,generalization,6,4,2,0,NaN,NaN,0.739332
20,0,103,generalization,7,6,2,0,NaN,NaN,0.374865
20,0,104,generalization,8,5,2,0,NaN,NaN,1.569134
20,0,105,generalization,9,1,5,1,NaN,NaN,1.242343
20,0,106,generalization,10,0,0,0,NaN,NaN,0.659225
20,0,107,generalization,11,5,0,1,NaN,NaN,1.636706
20,0,108,generalization,12,4,0,1,NaN,NaN,0.327528
20,0,109,generalization,13,6,6,0,NaN,NaN,1.001306
20,0,110,generalization,14,5,5,0,NaN,NaN,0.939067
20,0,111,generalization,15,1,1,0,NaN,NaN,2.043712
21,1,1,training,1,0,0,0,0,1,3.538970
21,1,2,training,2,0,6,0,1,0,1.438110
21,1,3,training,3,1,5,1,1,1,1.280694
21,1,4,training,4,1,5,1,1,1,1.648213
21,1,5,training,5,1,1,0,0,1,1.278068
21,1,6,training,6,5,5,1,0,0,0.965361
21,1,7,training,7,6,6,0,0,1,1.322455
21,1,8,training,8,0,6,1,1,1,1.192689
21,1,9,training,9,1,5,0,1,0,1.098589
21,1,10,training,10,5,5,1,0,0,4.026302
21,1,11,training,11,1,1,0,0,1,6.998122
21,1,12,training,12,0,0,0,0,1,1.119392
21,1,13,training,13,0,6,1,1,1,1.121543
21,1,14,training,14,0,6,1,1,1,1.043704
21,1,15,training,15,6,6,1,0,0,1.916448
21,1,16,training,16,1,5,1,1,1,1.523334
21,1,17,training,17,6,6,0,0,1,1.202626
21,1,18,training,18,1,5,1,1,1,1.142916
21,1,19,training,19,1,1,0,0,1,0.804382
21,1,20,training,20,5,5,0,0,1,1.174685
21,1,21,training,21,1,5,1,1,1,0.885981
21,1,22,training,22,0,6,1,1,1,1.163203
21,1,23,training,23,0,0,0,0,1,0.682580
21,1,24,training,24,0,6,1,1,1,0.734647
21,1,25,training,25,1,1,0,0,1,0.613008
21,1,26,training,26,0,0,0,0,1,0.556726
21,1,27,training,27,1,5,1,1,1,0.702328
21,1,28,training,28,0,6,1,1,1,0.563359
21,1,29,training,29,5,5,0,0,1,1.163395
21,1,30,training,30,0,6,1,1,1,4.824991
21,1,31,training,31,6,6,0,0,1,0.538464
21,1,32,training,32,1,5,1,1,1,1.018834
21,1,33,training,33,6,6,0,0,1,1.397059
21,1,34,training,34,1,5,1,1,1,1.794250
21,1,35,training,35,1,1,0,0,1,0.443292
21,1,36,training,36,1,5,1,1,1,1.994645
21,1,37,training,37,0,6,1,1,1,2.668644
21,1,38,training,38,0,0,0,0,1,0.433376
21,1,39,training,39,5,5,0,0,1,0.499216
21,1,40,training,40,0,6,1,1,1,0.649229
21,1,41,training,41,6,6,0,0,1,0.485107
21,1,42,training,42,1,5,1,1,1,0.716710
21,1,43,training,43,5,5,0,0,1,1.017435
21,1,44,training,44,0,6,1,1,1,0.526411
21,1,45,training,45,1,5,1,1,1,0.605069
21,1,46,training,46,0,6,1,1,1,0.391204
21,1,47,training,47,0,0,0,0,1,0.410064
21,1,48,training,48,1,1,0,0,1,0.337191
21,1,49,training,49,0,6,1,1,1,0.641795
21,1,50,training,50,1,1,0,0,1,0.300061
21,1,51,training,51,0,0,0,0,1,0.396392
21,1,52,training,52,1,5,1,1,1,0.482816
21,1,53,training,53,5,5,0,0,1,0.392684
21,1,54,training,54,0,6,1,1,1,1.837040
21,1,55,training,55,1,5,1,1,1,1.276196
21,1,56,training,56,6,6,0,0,1,0.505484
21,1,57,training,57,1,5,1,1,1,1.765491
21,1,58,training,58,1,5,1,1,1,0.809528
21,1,59,training,59,0,0,0,0,1,0.492173
21,1,60,training,60,1,1,0,0,1,0.339947
21,1,61,training,61,0,6,1,1,1,0.724075
21,1,62,training,62,5,5,0,0,1,0.783088
21,1,63,training,63,6,6,0,0,1,0.405335
21,1,64,training,64,0,6,1,1,1,0.881850
21,1,65,training,65,1,5,1,1,1,2.075688
21,1,66,training,66,1,5,1,1,1,0.472927
21,1,67,training,67,0,0,0,0,1,0.324299
21,1,68,training,68,0,6,1,1,1,0.502417
21,1,69,training,69,6,6,0,0,1,0.371826
21,1,70,training,70,5,5,0,0,1,0.607045
21,1,71,training,71,0,6,1,1,1,0.483346
21,1,72,training,72,1,1,0,0,1,0.354942
21,1,73,training,73,0,6,1,1,1,0.449118
21,1,74,training,74,0,6,1,1,1,1.037271
21,1,75,training,75,6,6,0,0,1,0.435226
21,1,76,training,76,1,5,1,1,1,2.962333
21,1,77,training,77,1,5,1,1,1,0.420103
21,1,78,training,78,5,5,0,0,1,0.602894
21,1,79,training,79,1,1,0,0,1,1.114313
21,1,80,training,80,0,0,0,0,1,0.386787
21,1,81,training,81,1,1,0,0,1,1.596523
21,1,82,training,82,1,5,1,1,1,0.493427
21,1,83,training,83,0,0,0,0,1,0.374107
21,1,84,training,84,1,5,1,1,1,0.372501
21,1,85,training,85,5,5,0,0,1,0.412653
21,1,86,training,86,6,6,0,0,1,0.337304
21,1,87,training,87,0,6,1,1,1,0.972357
21,1,88,training,88,0,6,1,1,1,0.714887
21,1,89,training,89,0,6,1,1,1,0.477078
21,1,90,training,90,0,0,0,0,1,0.382031
21,1,91,training,91,6,6,0,0,1,0.698859
21,1,92,training,92,0,6,1,1,1,0.488304
21,1,93,training,93,1,1,0,0,1,0.610677
21,1,94,training,94,1,5,1,1,1,1.013448
21,1,95,training,95,5,5,0,0,1,0.312516
21,1,96,training,96,1,5,1,1,1,1.942293
21,1,97,generalization,1,1,1,0,NaN,NaN,2.325363
21,1,98,generalization,2,5,5,0,NaN,NaN,0.857659
21,1,99,generalization,3,6,6,0,NaN,NaN,0.488466
21,1,100,generalization,4,6,1,1,NaN,NaN,9.469386
21,1,101,generalization,5,4,1,1,NaN,NaN,4.425057
21,1,102,generalization,6,4,2,1,NaN,NaN,1.571375
21,1,103,generalization,7,0,6,1,NaN,NaN,1.740656
21,1,104,generalization,8,5,1,1,NaN,NaN,1.362252
21,1,105,generalization,9,5,0,1,NaN,NaN,0.741891
21,1,106,generalization,10,6,0,1,NaN,NaN,0.489724
21,1,107,generalization,11,6,2,1,NaN,NaN,0.462926
21,1,108,generalization,12,4,0,1,NaN,NaN,0.331776
21,1,109,generalization,13,1,5,1,NaN,NaN,3.605271
21,1,110,generalization,14,5,2,1,NaN,NaN,2.874401
21,1,111,generalization,15,0,0,0,NaN,NaN,0.892867
22,5,1,training,1,0,0,0,0,1,4.961483
22,5,2,training,2,6,6,1,0,0,1.841433
22,5,3,training,3,0,6,0,1,0,2.966003
22,5,4,training,4,1,5,1,1,1,1.987312
22,5,5,training,5,1,1,0,0,1,0.830745
22,5,6,training,6,0,6,1,1,1,0.781152
22,5,7,training,7,5,5,1,0,0,0.804695
22,5,8,training,8,1,5,1,1,1,1.175195
22,5,9,training,9,1,5,1,1,1,0.483163
22,5,10,training,10,0,6,1,1,1,0.649325
22,5,11,training,11,6,6,0,0,1,0.728732
22,5,12,training,12,0,0,0,0,1,0.761133
22,5,13,training,13,5,5,0,0,1,4.177430
22,5,14,training,14,0,6,1,1,1,1.363942
22,5,15,training,15,1,5,1,1,1,0.458641
22,5,16,training,16,1,1,0,0,1,0.737776
22,5,17,training,17,1,5,1,1,1,2.083488
22,5,18,training,18,6,6,0,0,1,0.906769
22,5,19,training,19,1,5,1,1,1,2.316590
22,5,20,training,20,0,6,1,1,1,1.648833
22,5,21,training,21,0,6,1,1,1,0.734186
22,5,22,training,22,0,0,0,0,1,0.960665
22,5,23,training,23,1,1,0,0,1,0.780001
22,5,24,training,24,5,5,0,0,1,5.628878
22,5,25,training,25,5,5,0,0,1,0.671885
22,5,26,training,26,1,5,1,1,1,1.188496
22,5,27,training,27,1,5,1,1,1,0.571043
22,5,28,training,28,0,6,1,1,1,0.901082
22,5,29,training,29,1,1,0,0,1,1.143265
22,5,30,training,30,6,6,0,0,1,0.601168
22,5,31,training,31,0,0,0,0,1,1.061111
22,5,32,training,32,0,6,1,1,1,1.291550
22,5,33,training,33,6,6,0,0,1,1.081120
22,5,34,training,34,5,5,0,0,1,1.064840
22,5,35,training,35,1,5,1,1,1,3.317361
22,5,36,training,36,1,1,0,0,1,4.878296
22,5,37,training,37,0,6,1,1,1,1.037298
22,5,38,training,38,0,6,1,1,1,1.330945
22,5,39,training,39,1,5,1,1,1,0.384112
22,5,40,training,40,0,0,0,0,1,0.676375
22,5,41,training,41,6,6,0,0,1,0.860342
22,5,42,training,42,5,5,0,0,1,0.708090
22,5,43,training,43,1,5,1,1,1,1.491140
22,5,44,training,44,1,5,1,1,1,0.609517
22,5,45,training,45,1,1,0,0,1,0.586112
22,5,46,training,46,0,6,1,1,1,0.709177
22,5,47,training,47,0,6,1,1,1,2.008141
22,5,48,training,48,0,0,0,0,1,0.392526
22,5,49,training,49,1,1,0,0,1,1.362284
22,5,50,training,50,5,5,0,0,1,0.652904
22,5,51,training,51,6,6,0,0,1,2.663599
22,5,52,training,52,1,5,1,1,1,0.570865
22,5,53,training,53,1,5,1,1,1,1.948434
22,5,54,training,54,0,0,0,0,1,10.093164
22,5,55,training,55,0,6,1,1,1,2.229869
22,5,56,training,56,0,6,1,1,1,0.588216
22,5,57,training,57,1,1,0,0,1,0.995370
22,5,58,training,58,6,6,0,0,1,3.581265
22,5,59,training,59,0,6,1,1,1,1.492048
22,5,60,training,60,1,5,1,1,1,1.069111
22,5,61,training,61,1,5,1,1,1,2.708007
22,5,62,training,62,0,6,1,1,1,0.728582
22,5,63,training,63,0,0,0,0,1,1.346957
22,5,64,training,64,5,5,0,0,1,2.475044
22,5,65,training,65,1,5,1,1,1,5.714995
22,5,66,training,66,0,6,1,1,1,0.333841
22,5,67,training,67,6,6,0,0,1,11.062794
22,5,68,training,68,0,0,0,0,1,0.602802
22,5,69,training,69,5,5,0,0,1,0.703468
22,5,70,training,70,1,1,0,0,1,0.398512
22,5,71,training,71,1,5,1,1,1,0.682518
22,5,72,training,72,0,6,1,1,1,2.383501
22,5,73,training,73,0,6,1,1,1,9.227087
22,5,74,training,74,6,6,0,0,1,0.908457
22,5,75,training,75,0,0,0,0,1,0.838331
22,5,76,training,76,5,5,0,0,1,1.984430
22,5,77,training,77,1,5,1,1,1,5.060744
22,5,78,training,78,1,5,1,1,1,0.610661
22,5,79,training,79,1,1,0,0,1,0.628250
22,5,80,training,80,0,6,1,1,1,0.608045
22,5,81,training,81,0,0,0,0,1,0.370352
22,5,82,training,82,0,6,1,1,1,1.039118
22,5,83,training,83,6,6,0,0,1,0.602984
22,5,84,training,84,0,6,1,1,1,1.764500
22,5,85,training,85,1,1,0,0,1,0.307698
22,5,86,training,86,5,5,0,0,1,0.766003
22,5,87,training,87,1,5,1,1,1,6.370531
22,5,88,training,88,1,5,1,1,1,0.756231
22,5,89,training,89,0,6,1,1,1,17.638562
22,5,90,training,90,5,5,0,0,1,0.555123
22,5,91,training,91,0,6,1,1,1,0.534753
22,5,92,training,92,1,5,1,1,1,1.205815
22,5,93,training,93,6,6,0,0,1,0.509363
22,5,94,training,94,1,1,0,0,1,4.710256
22,5,95,training,95,1,5,1,1,1,7.237168
22,5,96,training,96,0,0,0,0,1,0.346422
22,5,97,generalization,1,5,5,0,NaN,NaN,4.453286
22,5,98,generalization,2,5,0,1,NaN,NaN,1.648013
22,5,99,generalization,3,5,1,1,NaN,NaN,0.707547
22,5,100,generalization,4,6,2,1,NaN,NaN,0.494409
22,5,101,generalization,5,6,6,0,NaN,NaN,1.044068
22,5,102,generalization,6,0,0,0,NaN,NaN,0.559555
22,5,103,generalization,7,5,2,1,NaN,NaN,2.638713
22,5,104,generalization,8,4,1,1,NaN,NaN,2.003203
22,5,105,generalization,9,6,1,1,NaN,NaN,0.535230
22,5,106,generalization,10,1,1,0,NaN,NaN,0.701596
22,5,107,generalization,11,0,6,1,NaN,NaN,0.512332
22,5,108,generalization,12,4,0,1,NaN,NaN,1.702266
22,5,109,generalization,13,1,5,1,NaN,NaN,1.218657
22,5,110,generalization,14,4,2,1,NaN,NaN,3.330579
22,5,111,generalization,15,6,0,1,NaN,NaN,0.552539
23,3,1,training,1,6,6,0,0,1,3.278275
23,3,2,training,2,1,5,1,1,1,1.494766
23,3,3,training,3,1,1,1,0,0,1.210444
23,3,4,training,4,0,6,0,1,0,3.907096
23,3,5,training,5,5,5,1,0,0,0.897049
23,3,6,training,6,1,5,0,1,0,0.814561
23,3,7,training,7,0,6,0,1,0,1.206204
23,3,8,training,8,0,0,1,0,0,0.900487
23,3,9,training,9,0,0,0,0,1,0.686578
23,3,10,training,10,1,5,0,1,0,0.510646
23,3,11,training,11,5,5,1,0,0,0.580067
23,3,12,training,12,6,6,0,0,1,0.548851
23,3,13,training,13,0,6,1,1,1,1.009007
23,3,14,training,14,1,5,1,1,1,0.794948
23,3,15,training,15,0,6,1,1,1,1.491526
23,3,16,training,16,1,1,0,0,1,0.333743
23,3,17,training,17,1,1,0,0,1,0.493853
23,3,18,training,18,5,5,0,0,1,0.764785
23,3,19,training,19,0,6,1,1,1,0.330355
23,3,20,training,20,1,5,1,1,1,0.412159
23,3,21,training,21,6,6,0,0,1,0.507509
23,3,22,training,22,0,6,1,1,1,0.541384
23,3,23,training,23,0,0,0,0,1,0.334848
23,3,24,training,24,1,5,1,1,1,0.413442
23,3,25,training,25,5,5,0,0,1,0.548242
23,3,26,training,26,6,6,0,0,1,0.490813
23,3,27,training,27,1,5,1,1,1,0.844398
23,3,28,training,28,0,0,0,0,1,0.526700
23,3,29,training,29,0,6,1,1,1,0.464795
23,3,30,training,30,0,6,1,1,1,0.314047
23,3,31,training,31,1,5,1,1,1,0.810594
23,3,32,training,32,1,1,0,0,1,0.281220
23,3,33,training,33,0,6,1,1,1,0.411591
23,3,34,training,34,0,0,0,0,1,0.438585
23,3,35,training,35,0,6,1,1,1,0.787538
23,3,36,training,36,5,5,0,0,1,0.537905
23,3,37,training,37,1,5,1,1,1,0.388533
23,3,38,training,38,6,6,0,0,1,0.381632
23,3,39,training,39,1,5,1,1,1,0.690892
23,3,40,training,40,1,1,0,0,1,0.303172
23,3,41,training,41,6,6,0,0,1,0.532549
23,3,42,training,42,1,5,1,1,1,0.360800
23,3,43,training,43,0,0,0,0,1,0.293569
23,3,44,training,44,0,6,1,1,1,0.595954
23,3,45,training,45,1,1,0,0,1,0.298975
23,3,46,training,46,5,5,0,0,1,0.928704
23,3,47,training,47,0,6,1,1,1,0.636001
23,3,48,training,48,1,5,1,1,1,0.774300
23,3,49,training,49,0,6,1,1,1,1.071345
23,3,50,training,50,0,0,0,0,1,0.382172
23,3,51,training,51,1,5,1,1,1,0.345573
23,3,52,training,52,0,6,1,1,1,0.422926
23,3,53,training,53,1,1,0,0,1,0.410373
23,3,54,training,54,1,5,1,1,1,0.989988
23,3,55,training,55,6,6,0,0,1,1.214377
23,3,56,training,56,5,5,0,0,1,0.413852
23,3,57,training,57,1,1,0,0,1,0.443768
23,3,58,training,58,0,6,1,1,1,0.423016
23,3,59,training,59,0,0,0,0,1,0.300832
23,3,60,training,60,0,6,1,1,1,1.986143
23,3,61,training,61,5,5,0,0,1,2.783530
23,3,62,training,62,6,6,0,0,1,0.619668
23,3,63,training,63,1,5,1,1,1,0.594823
23,3,64,training,64,1,5,1,1,1,0.469505
23,3,65,training,65,0,6,1,1,1,0.559380
23,3,66,training,66,1,1,0,0,1,0.750606
23,3,67,training,67,0,0,0,0,1,0.299047
23,3,68,training,68,0,6,1,1,1,0.325914
